Subject	shword	Resp	RT	step	sword	TrialCount	wavfile	which	Sresp	StepNum
207	currenshy	1	2303	step11	currency	1	Continuua/currency_currenshy/stimulus011.wav	one	5	11
207	shin	1	991	step8	sin	2	Continuua/sin_shin/stimulus008.wav	both	5	8
207	conshert	1	747	step10	concert	3	Continuua/concert_conshert/stimulus010.wav	one	5	10
207	shafari	5	1375	step1	safari	4	Continuua/safari_shafari/stimulus001.wav	one	5	1
207	penshil	1	796	step8	pencil	5	Continuua/pencil_penshil/stimulus008.wav	one	5	8
207	dinoshaur	1	977	step11	dinosaur	6	Continuua/dinosaur_dinoshaur/stimulus011.wav	one	5	11
207	monshoon	5	731	step3	monsoon	7	Continuua/monsoon_monshoon/stimulus003.wav	one	5	3
207	shettlement	1	777	step11	settlement	8	Continuua/settlement_shettlement/stimulus011.wav	one	5	11
207	dinoshaur	5	836	step5	dinosaur	9	Continuua/dinosaur_dinoshaur/stimulus005.wav	one	5	5
207	monshoon	5	751	step5	monsoon	10	Continuua/monsoon_monshoon/stimulus005.wav	one	5	5
207	takshi	5	1396	step6	taxi	11	Continuua/taxi_takshi/stimulus006.wav	one	5	6
207	shurfboard	1	1147	step11	surfboard	12	Continuua/surfboard_shurfboard/stimulus011.wav	one	5	11
207	shelery	1	1046	step8	celery	13	Continuua/celery_shelery/stimulus008.wav	one	5	8
207	shunroof	5	914	step5	sunroof	14	Continuua/sunroof_shunroof/stimulus005.wav	one	5	5
207	sheiling	5	2017	step7	ceiling	15	Continuua/ceiling_sheiling/stimulus007.wav	one	5	7
207	shyrup	5	842	step1	syrup	16	Continuua/syrup_shyrup/stimulus001.wav	one	5	1
207	caroushel	5	1228	step7	carousel	17	Continuua/carousel_caroushel/stimulus007.wav	one	5	7
207	sheiling	5	853	step4	ceiling	18	Continuua/ceiling_sheiling/stimulus004.wav	one	5	4
207	galakshy	5	825	step1	galaxy	19	Continuua/galaxy_galakshy/stimulus001.wav	one	5	1
207	faushet	1	850	step10	faucet	20	Continuua/faucet_faushet/stimulus010.wav	one	5	10
207	sheminar	5	649	step2	seminar	21	Continuua/seminar_sheminar/stimulus002.wav	one	5	2
207	shafari	1	828	step10	safari	22	Continuua/safari_shafari/stimulus010.wav	one	5	10
207	shubmarine	1	840	step10	submarine	23	Continuua/submarine_shubmarine/stimulus010.wav	one	5	10
207	shyrup	5	698	step3	syrup	24	Continuua/syrup_shyrup/stimulus003.wav	one	5	3
207	monshoon	5	669	step2	monsoon	25	Continuua/monsoon_monshoon/stimulus002.wav	one	5	2
207	medishine	1	853	step9	medicine	26	Continuua/medicine_medishine/stimulus009.wav	one	5	9
207	shelery	1	788	step10	celery	27	Continuua/celery_shelery/stimulus010.wav	one	5	10
207	dansher	1	723	step11	dancer	28	Continuua/dancer_dansher/stimulus011.wav	one	5	11
207	shy	5	831	step1	sigh	29	Continuua/sigh_shy/stimulus001.wav	both	5	1
207	faushet	5	992	step6	faucet	30	Continuua/faucet_faushet/stimulus006.wav	one	5	6
207	shaddle	5	662	step4	saddle	31	Continuua/saddle_shaddle/stimulus004.wav	one	5	4
207	takshi	1	783	step11	taxi	32	Continuua/taxi_takshi/stimulus011.wav	one	5	11
207	medishine	5	883	step3	medicine	33	Continuua/medicine_medishine/stimulus003.wav	one	5	3
207	sheremony	5	1949	step8	ceremony	34	Continuua/ceremony_sheremony/stimulus008.wav	one	5	8
207	dansher	1	781	step10	dancer	35	Continuua/dancer_dansher/stimulus010.wav	one	5	10
207	caroushel	5	739	step4	carousel	36	Continuua/carousel_caroushel/stimulus004.wav	one	5	4
207	ashi	5	1227	step5	asi	37	Continuua/asi_ashi/stimulus005.wav	both	5	5
207	shector	5	785	step5	sector	38	Continuua/sector_shector/stimulus005.wav	one	5	5
207	shelery	1	723	step9	celery	39	Continuua/celery_shelery/stimulus009.wav	one	5	9
207	takshi	1	1683	step10	taxi	40	Continuua/taxi_takshi/stimulus010.wav	one	5	10
207	currenshy	1	929	step8	currency	41	Continuua/currency_currenshy/stimulus008.wav	one	5	8
207	takshi	5	608	step3	taxi	42	Continuua/taxi_takshi/stimulus003.wav	one	5	3
207	mishile	5	908	step4	missile	43	Continuua/missile_mishile/stimulus004.wav	one	5	4
207	shatellite	5	581	step1	satellite	44	Continuua/satellite_shatellite/stimulus001.wav	one	5	1
207	shin	1	884	step6	sin	45	Continuua/sin_shin/stimulus006.wav	both	5	6
207	shatellite	5	838	step5	satellite	46	Continuua/satellite_shatellite/stimulus005.wav	one	5	5
207	shubmarine	1	712	step9	submarine	47	Continuua/submarine_shubmarine/stimulus009.wav	one	5	9
207	shafari	1	785	step11	safari	48	Continuua/safari_shafari/stimulus011.wav	one	5	11
207	ashi	5	638	step2	asi	49	Continuua/asi_ashi/stimulus002.wav	both	5	2
207	foshil	5	2018	step8	fossil	50	Continuua/fossil_foshil/stimulus008.wav	one	5	8
207	shack	5	889	step4	sack	51	Continuua/sack_shack/stimulus004.wav	both	5	4
207	sheiling	5	848	step5	ceiling	52	Continuua/ceiling_sheiling/stimulus005.wav	one	5	5
207	shofa	5	700	step1	sofa	53	Continuua/sofa_shofa/stimulus001.wav	one	5	1
207	shyrup	1	1202	step7	syrup	54	Continuua/syrup_shyrup/stimulus007.wav	one	5	7
207	shettlement	1	1541	step8	settlement	55	Continuua/settlement_shettlement/stimulus008.wav	one	5	8
207	conshert	5	1178	step6	concert	56	Continuua/concert_conshert/stimulus006.wav	one	5	6
207	monshoon	5	788	step1	monsoon	57	Continuua/monsoon_monshoon/stimulus001.wav	one	5	1
207	shocket	5	735	step5	socket	58	Continuua/socket_shocket/stimulus005.wav	one	5	5
207	currenshy	5	797	step1	currency	59	Continuua/currency_currenshy/stimulus001.wav	one	5	1
207	shocket	1	1091	step11	socket	60	Continuua/socket_shocket/stimulus011.wav	one	5	11
207	tashel	5	1244	step4	tassel	61	Continuua/tassel_tashel/stimulus004.wav	one	5	4
207	croishant	5	982	step3	croissant	62	Continuua/croissant_croishant/stimulus003.wav	one	5	3
207	shack	1	1229	step10	sack	63	Continuua/sack_shack/stimulus010.wav	both	5	10
207	cashtle	1	1394	step7	castle	64	Continuua/castle_cashle/stimulus007.wav	one	5	7
207	shaddle	5	661	step1	saddle	65	Continuua/saddle_shaddle/stimulus001.wav	one	5	1
207	shocket	5	606	step1	socket	66	Continuua/socket_shocket/stimulus001.wav	one	5	1
207	currenshy	5	1047	step5	currency	67	Continuua/currency_currenshy/stimulus005.wav	one	5	5
207	caroushel	5	804	step3	carousel	68	Continuua/carousel_caroushel/stimulus003.wav	one	5	3
207	shubmarine	1	857	step11	submarine	69	Continuua/submarine_shubmarine/stimulus011.wav	one	5	11
207	sheminar	5	977	step3	seminar	70	Continuua/seminar_sheminar/stimulus003.wav	one	5	3
207	curtshy	1	777	step10	curtsy	71	Continuua/curtsy_curtshy/stimulus010.wav	one	5	10
207	shidewalk	1	872	step6	sidewalk	72	Continuua/sidewalk_shidewalk/stimulus006.wav	one	5	6
207	whishtle	5	684	step2	whistle	73	Continuua/whistle_whishle/stimulus002.wav	one	5	2
207	shyrup	1	810	step8	syrup	74	Continuua/syrup_shyrup/stimulus008.wav	one	5	8
207	currenshy	1	871	step7	currency	75	Continuua/currency_currenshy/stimulus007.wav	one	5	7
207	mishile	5	1651	step8	missile	76	Continuua/missile_mishile/stimulus008.wav	one	5	8
207	shaddle	1	1983	step10	saddle	77	Continuua/saddle_shaddle/stimulus010.wav	one	5	10
207	sheiling	5	595	step1	ceiling	78	Continuua/ceiling_sheiling/stimulus001.wav	one	5	1
207	shatellite	1	1417	step7	satellite	79	Continuua/satellite_shatellite/stimulus007.wav	one	5	7
207	penshil	5	806	step2	pencil	80	Continuua/pencil_penshil/stimulus002.wav	one	5	2
207	shunroof	1	731	step8	sunroof	81	Continuua/sunroof_shunroof/stimulus008.wav	one	5	8
207	shilver	1	955	step11	silver	82	Continuua/silver_shilver/stimulus011.wav	one	5	11
207	shelery	5	840	step4	celery	83	Continuua/celery_shelery/stimulus004.wav	one	5	4
207	shurfboard	5	759	step4	surfboard	84	Continuua/surfboard_shurfboard/stimulus004.wav	one	5	4
207	shofa	1	685	step10	sofa	85	Continuua/sofa_shofa/stimulus010.wav	one	5	10
207	cashtle	5	1463	step5	castle	86	Continuua/castle_cashle/stimulus005.wav	one	5	5
207	ashi	5	926	step6	asi	87	Continuua/asi_ashi/stimulus006.wav	both	5	6
207	mishile	5	741	step5	missile	88	Continuua/missile_mishile/stimulus005.wav	one	5	5
207	shock	1	981	step11	sock	89	Continuua/sock_shock/stimulus011.wav	both	5	11
207	shofa	5	736	step5	sofa	90	Continuua/sofa_shofa/stimulus005.wav	one	5	5
207	shin	1	727	step9	sin	91	Continuua/sin_shin/stimulus009.wav	both	5	9
207	dinoshaur	5	929	step3	dinosaur	92	Continuua/dinosaur_dinoshaur/stimulus003.wav	one	5	3
207	ashi	1	675	step9	asi	93	Continuua/asi_ashi/stimulus009.wav	both	5	9
207	tashel	1	951	step11	tassel	94	Continuua/tassel_tashel/stimulus011.wav	one	5	11
207	shector	1	973	step7	sector	95	Continuua/sector_shector/stimulus007.wav	one	5	7
207	monshoon	5	752	step4	monsoon	96	Continuua/monsoon_monshoon/stimulus004.wav	one	5	4
207	dinoshaur	5	1140	step6	dinosaur	97	Continuua/dinosaur_dinoshaur/stimulus006.wav	one	5	6
207	pharmashy	1	898	step10	pharmacy	98	Continuua/pharmacy_pharmashy/stimulus010.wav	one	5	10
207	shunroof	1	706	step10	sunroof	99	Continuua/sunroof_shunroof/stimulus010.wav	one	5	10
207	shubmarine	5	715	step5	submarine	100	Continuua/submarine_shubmarine/stimulus005.wav	one	5	5
207	shyrup	5	603	step2	syrup	101	Continuua/syrup_shyrup/stimulus002.wav	one	5	2
207	penshil	5	805	step5	pencil	102	Continuua/pencil_penshil/stimulus005.wav	one	5	5
207	shector	1	730	step9	sector	103	Continuua/sector_shector/stimulus009.wav	one	5	9
207	conshert	5	663	step4	concert	104	Continuua/concert_conshert/stimulus004.wav	one	5	4
207	shidewalk	5	734	step4	sidewalk	105	Continuua/sidewalk_shidewalk/stimulus004.wav	one	5	4
207	shy	5	755	step2	sigh	106	Continuua/sigh_shy/stimulus002.wav	both	5	2
207	caroushel	5	844	step2	carousel	107	Continuua/carousel_caroushel/stimulus002.wav	one	5	2
207	currenshy	5	803	step3	currency	108	Continuua/currency_currenshy/stimulus003.wav	one	5	3
207	shilver	5	648	step3	silver	109	Continuua/silver_shilver/stimulus003.wav	one	5	3
207	shofa	5	2328	step7	sofa	110	Continuua/sofa_shofa/stimulus007.wav	one	5	7
207	shettlement	5	737	step1	settlement	111	Continuua/settlement_shettlement/stimulus001.wav	one	5	1
207	conshert	5	1548	step7	concert	112	Continuua/concert_conshert/stimulus007.wav	one	5	7
207	shofa	5	681	step2	sofa	113	Continuua/sofa_shofa/stimulus002.wav	one	5	2
207	shafari	1	840	step8	safari	114	Continuua/safari_shafari/stimulus008.wav	one	5	8
207	shidewalk	5	659	step1	sidewalk	115	Continuua/sidewalk_shidewalk/stimulus001.wav	one	5	1
207	foshil	1	1752	step9	fossil	116	Continuua/fossil_foshil/stimulus009.wav	one	5	9
207	faushet	1	752	step7	faucet	117	Continuua/faucet_faushet/stimulus007.wav	one	5	7
207	mishile	5	641	step2	missile	118	Continuua/missile_mishile/stimulus002.wav	one	5	2
207	shock	5	709	step2	sock	119	Continuua/sock_shock/stimulus002.wav	both	5	2
207	conshert	1	691	step8	concert	120	Continuua/concert_conshert/stimulus008.wav	one	5	8
207	foshil	5	829	step5	fossil	121	Continuua/fossil_foshil/stimulus005.wav	one	5	5
207	shin	1	847	step11	sin	122	Continuua/sin_shin/stimulus011.wav	both	5	11
207	shin	1	615	step10	sin	123	Continuua/sin_shin/stimulus010.wav	both	5	10
207	shy	1	731	step11	sigh	124	Continuua/sigh_shy/stimulus011.wav	both	5	11
207	whishtle	1	774	step10	whistle	125	Continuua/whistle_whishle/stimulus010.wav	one	5	10
207	shilver	5	1878	step1	silver	126	Continuua/silver_shilver/stimulus001.wav	one	5	1
207	sheremony	1	3188	step7	ceremony	127	Continuua/ceremony_sheremony/stimulus007.wav	one	5	7
207	dansher	1	789	step9	dancer	128	Continuua/dancer_dansher/stimulus009.wav	one	5	9
207	takshi	5	678	step4	taxi	129	Continuua/taxi_takshi/stimulus004.wav	one	5	4
207	faushet	1	828	step8	faucet	130	Continuua/faucet_faushet/stimulus008.wav	one	5	8
207	cashtle	1	771	step9	castle	131	Continuua/castle_cashle/stimulus009.wav	one	5	9
207	shack	1	747	step11	sack	132	Continuua/sack_shack/stimulus011.wav	both	5	11
207	cashtle	5	629	step2	castle	133	Continuua/castle_cashle/stimulus002.wav	one	5	2
207	galakshy	5	768	step4	galaxy	134	Continuua/galaxy_galakshy/stimulus004.wav	one	5	4
207	cashtle	5	933	step6	castle	135	Continuua/castle_cashle/stimulus006.wav	one	5	6
207	sheremony	5	768	step5	ceremony	136	Continuua/ceremony_sheremony/stimulus005.wav	one	5	5
207	shatellite	1	694	step11	satellite	137	Continuua/satellite_shatellite/stimulus011.wav	one	5	11
207	mishile	5	1436	step7	missile	138	Continuua/missile_mishile/stimulus007.wav	one	5	7
207	sheminar	5	846	step5	seminar	139	Continuua/seminar_sheminar/stimulus005.wav	one	5	5
207	shatellite	5	958	step6	satellite	140	Continuua/satellite_shatellite/stimulus006.wav	one	5	6
207	dansher	1	837	step6	dancer	141	Continuua/dancer_dansher/stimulus006.wav	one	5	6
207	shaddle	5	811	step2	saddle	142	Continuua/saddle_shaddle/stimulus002.wav	one	5	2
207	faushet	5	713	step1	faucet	143	Continuua/faucet_faushet/stimulus001.wav	one	5	1
207	shector	1	700	step11	sector	144	Continuua/sector_shector/stimulus011.wav	one	5	11
207	shock	5	647	step1	sock	145	Continuua/sock_shock/stimulus001.wav	both	5	1
207	cashtle	5	816	step3	castle	146	Continuua/castle_cashle/stimulus003.wav	one	5	3
207	sheminar	1	702	step8	seminar	147	Continuua/seminar_sheminar/stimulus008.wav	one	5	8
207	shettlement	1	721	step7	settlement	148	Continuua/settlement_shettlement/stimulus007.wav	one	5	7
207	shock	1	662	step9	sock	149	Continuua/sock_shock/stimulus009.wav	both	5	9
207	takshi	5	955	step7	taxi	150	Continuua/taxi_takshi/stimulus007.wav	one	5	7
207	curshor	5	909	step7	cursor	151	Continuua/cursor_curshor/stimulus007.wav	one	5	7
207	shilver	1	852	step9	silver	152	Continuua/silver_shilver/stimulus009.wav	one	5	9
207	shofa	5	827	step4	sofa	153	Continuua/sofa_shofa/stimulus004.wav	one	5	4
207	curtshy	5	686	step3	curtsy	154	Continuua/curtsy_curtshy/stimulus003.wav	one	5	3
207	shack	1	770	step6	sack	155	Continuua/sack_shack/stimulus006.wav	both	5	6
207	shettlement	1	677	step10	settlement	156	Continuua/settlement_shettlement/stimulus010.wav	one	5	10
207	takshi	5	735	step2	taxi	157	Continuua/taxi_takshi/stimulus002.wav	one	5	2
207	mishile	1	655	step9	missile	158	Continuua/missile_mishile/stimulus009.wav	one	5	9
207	shin	5	592	step3	sin	159	Continuua/sin_shin/stimulus003.wav	both	5	3
207	shock	5	559	step4	sock	160	Continuua/sock_shock/stimulus004.wav	both	5	4
207	sheiling	5	1146	step6	ceiling	161	Continuua/ceiling_sheiling/stimulus006.wav	one	5	6
207	galakshy	1	1009	step10	galaxy	162	Continuua/galaxy_galakshy/stimulus010.wav	one	5	10
207	medishine	5	1517	step8	medicine	163	Continuua/medicine_medishine/stimulus008.wav	one	5	8
207	shailboat	5	890	step5	sailboat	164	Continuua/sailboat_shailboat/stimulus005.wav	one	5	5
207	sheremony	5	745	step3	ceremony	165	Continuua/ceremony_sheremony/stimulus003.wav	one	5	3
207	cashtle	1	983	step11	castle	166	Continuua/castle_cashle/stimulus011.wav	one	5	11
207	shack	1	856	step9	sack	167	Continuua/sack_shack/stimulus009.wav	both	5	9
207	pharmashy	5	999	step2	pharmacy	168	Continuua/pharmacy_pharmashy/stimulus002.wav	one	5	2
207	shy	5	708	step4	sigh	169	Continuua/sigh_shy/stimulus004.wav	both	5	4
207	currenshy	1	826	step10	currency	170	Continuua/currency_currenshy/stimulus010.wav	one	5	10
207	faushet	5	857	step5	faucet	171	Continuua/faucet_faushet/stimulus005.wav	one	5	5
207	shock	1	1512	step8	sock	172	Continuua/sock_shock/stimulus008.wav	both	5	8
207	dinoshaur	1	853	step10	dinosaur	173	Continuua/dinosaur_dinoshaur/stimulus010.wav	one	5	10
207	shatellite	5	721	step4	satellite	174	Continuua/satellite_shatellite/stimulus004.wav	one	5	4
207	shafari	1	721	step9	safari	175	Continuua/safari_shafari/stimulus009.wav	one	5	9
207	penshil	1	739	step10	pencil	176	Continuua/pencil_penshil/stimulus010.wav	one	5	10
207	whishtle	1	570	step9	whistle	177	Continuua/whistle_whishle/stimulus009.wav	one	5	9
207	shocket	5	731	step4	socket	178	Continuua/socket_shocket/stimulus004.wav	one	5	4
207	shy	1	865	step8	sigh	179	Continuua/sigh_shy/stimulus008.wav	both	5	8
207	shatellite	5	690	step3	satellite	180	Continuua/satellite_shatellite/stimulus003.wav	one	5	3
207	shofa	1	611	step9	sofa	181	Continuua/sofa_shofa/stimulus009.wav	one	5	9
207	conshert	1	665	step9	concert	182	Continuua/concert_conshert/stimulus009.wav	one	5	9
207	shidewalk	1	719	step8	sidewalk	183	Continuua/sidewalk_shidewalk/stimulus008.wav	one	5	8
207	sheminar	1	588	step9	seminar	184	Continuua/seminar_sheminar/stimulus009.wav	one	5	9
207	shack	1	696	step8	sack	185	Continuua/sack_shack/stimulus008.wav	both	5	8
207	shaddle	1	735	step11	saddle	186	Continuua/saddle_shaddle/stimulus011.wav	one	5	11
207	shement	5	753	step6	cement	187	Continuua/cement_shement/stimulus006.wav	one	5	6
207	shyrup	5	1047	step5	syrup	188	Continuua/syrup_shyrup/stimulus005.wav	one	5	5
207	sheremony	5	643	step4	ceremony	189	Continuua/ceremony_sheremony/stimulus004.wav	one	5	4
207	foshil	5	729	step4	fossil	190	Continuua/fossil_foshil/stimulus004.wav	one	5	4
207	croishant	1	1460	step11	croissant	191	Continuua/croissant_croishant/stimulus011.wav	one	5	11
207	pharmashy	1	1114	step11	pharmacy	192	Continuua/pharmacy_pharmashy/stimulus011.wav	one	5	11
207	ashi	1	1553	step8	asi	193	Continuua/asi_ashi/stimulus008.wav	both	5	8
207	shilver	1	761	step7	silver	194	Continuua/silver_shilver/stimulus007.wav	one	5	7
207	shailboat	1	823	step7	sailboat	195	Continuua/sailboat_shailboat/stimulus007.wav	one	5	7
207	medishine	5	734	step4	medicine	196	Continuua/medicine_medishine/stimulus004.wav	one	5	4
207	dansher	5	634	step4	dancer	197	Continuua/dancer_dansher/stimulus004.wav	one	5	4
207	shafari	5	689	step4	safari	198	Continuua/safari_shafari/stimulus004.wav	one	5	4
207	shelery	5	670	step3	celery	199	Continuua/celery_shelery/stimulus003.wav	one	5	3
207	shurfboard	5	655	step2	surfboard	200	Continuua/surfboard_shurfboard/stimulus002.wav	one	5	2
207	shelery	1	791	step11	celery	201	Continuua/celery_shelery/stimulus011.wav	one	5	11
207	shubmarine	5	634	step2	submarine	202	Continuua/submarine_shubmarine/stimulus002.wav	one	5	2
207	shack	5	659	step3	sack	203	Continuua/sack_shack/stimulus003.wav	both	5	3
207	shock	5	590	step5	sock	204	Continuua/sock_shock/stimulus005.wav	both	5	5
207	shurfboard	5	598	step1	surfboard	205	Continuua/surfboard_shurfboard/stimulus001.wav	one	5	1
207	dansher	1	722	step8	dancer	206	Continuua/dancer_dansher/stimulus008.wav	one	5	8
207	shubmarine	1	601	step6	submarine	207	Continuua/submarine_shubmarine/stimulus006.wav	one	5	6
207	tashel	1	959	step7	tassel	208	Continuua/tassel_tashel/stimulus007.wav	one	5	7
207	shurfboard	1	1000	step10	surfboard	209	Continuua/surfboard_shurfboard/stimulus010.wav	one	5	10
207	shement	5	639	step3	cement	210	Continuua/cement_shement/stimulus003.wav	one	5	3
207	shafari	5	686	step3	safari	211	Continuua/safari_shafari/stimulus003.wav	one	5	3
207	shilver	1	632	step8	silver	212	Continuua/silver_shilver/stimulus008.wav	one	5	8
207	shy	1	987	step6	sigh	213	Continuua/sigh_shy/stimulus006.wav	both	5	6
207	sheiling	1	830	step10	ceiling	214	Continuua/ceiling_sheiling/stimulus010.wav	one	5	10
207	whishtle	5	893	step5	whistle	215	Continuua/whistle_whishle/stimulus005.wav	one	5	5
207	ashi	1	776	step11	asi	216	Continuua/asi_ashi/stimulus011.wav	both	5	11
207	sheminar	5	651	step1	seminar	217	Continuua/seminar_sheminar/stimulus001.wav	one	5	1
207	currenshy	1	903	step9	currency	218	Continuua/currency_currenshy/stimulus009.wav	one	5	9
207	sheiling	5	672	step3	ceiling	219	Continuua/ceiling_sheiling/stimulus003.wav	one	5	3
207	shailboat	5	1084	step6	sailboat	220	Continuua/sailboat_shailboat/stimulus006.wav	one	5	6
207	curshor	5	798	step6	cursor	221	Continuua/cursor_curshor/stimulus006.wav	one	5	6
207	curtshy	1	818	step8	curtsy	222	Continuua/curtsy_curtshy/stimulus008.wav	one	5	8
207	whishtle	1	648	step11	whistle	223	Continuua/whistle_whishle/stimulus011.wav	one	5	11
207	mishile	1	669	step10	missile	224	Continuua/missile_mishile/stimulus010.wav	one	5	10
207	monshoon	1	914	step9	monsoon	225	Continuua/monsoon_monshoon/stimulus009.wav	one	5	9
207	pharmashy	1	796	step7	pharmacy	226	Continuua/pharmacy_pharmashy/stimulus007.wav	one	5	7
207	sheiling	5	986	step2	ceiling	227	Continuua/ceiling_sheiling/stimulus002.wav	one	5	2
207	shurfboard	1	903	step9	surfboard	228	Continuua/surfboard_shurfboard/stimulus009.wav	one	5	9
207	shailboat	5	968	step1	sailboat	229	Continuua/sailboat_shailboat/stimulus001.wav	one	5	1
207	shy	5	741	step3	sigh	230	Continuua/sigh_shy/stimulus003.wav	both	5	3
207	cashtle	5	725	step4	castle	231	Continuua/castle_cashle/stimulus004.wav	one	5	4
207	shin	5	761	step1	sin	232	Continuua/sin_shin/stimulus001.wav	both	5	1
207	shock	1	727	step10	sock	233	Continuua/sock_shock/stimulus010.wav	both	5	10
207	whishtle	5	711	step4	whistle	234	Continuua/whistle_whishle/stimulus004.wav	one	5	4
207	shatellite	1	761	step10	satellite	235	Continuua/satellite_shatellite/stimulus010.wav	one	5	10
207	shilver	5	694	step4	silver	236	Continuua/silver_shilver/stimulus004.wav	one	5	4
207	shaddle	5	2317	step7	saddle	237	Continuua/saddle_shaddle/stimulus007.wav	one	5	7
207	whishtle	1	4036	step7	whistle	238	Continuua/whistle_whishle/stimulus007.wav	one	5	7
207	shocket	5	1145	step2	socket	239	Continuua/socket_shocket/stimulus002.wav	one	5	2
207	shack	5	753	step2	sack	240	Continuua/sack_shack/stimulus002.wav	both	5	2
207	shunroof	1	890	step9	sunroof	241	Continuua/sunroof_shunroof/stimulus009.wav	one	5	9
207	dansher	5	1429	step7	dancer	242	Continuua/dancer_dansher/stimulus007.wav	one	5	7
207	shector	1	853	step8	sector	243	Continuua/sector_shector/stimulus008.wav	one	5	8
207	shurfboard	5	757	step3	surfboard	244	Continuua/surfboard_shurfboard/stimulus003.wav	one	5	3
207	curshor	5	600	step2	cursor	245	Continuua/cursor_curshor/stimulus002.wav	one	5	2
207	ashi	5	678	step4	asi	246	Continuua/asi_ashi/stimulus004.wav	both	5	4
207	sheiling	1	756	step8	ceiling	247	Continuua/ceiling_sheiling/stimulus008.wav	one	5	8
207	penshil	1	674	step11	pencil	248	Continuua/pencil_penshil/stimulus011.wav	one	5	11
207	shafari	1	827	step6	safari	249	Continuua/safari_shafari/stimulus006.wav	one	5	6
207	shy	1	820	step9	sigh	250	Continuua/sigh_shy/stimulus009.wav	both	5	9
207	caroushel	5	921	step1	carousel	251	Continuua/carousel_caroushel/stimulus001.wav	one	5	1
207	ashi	5	757	step1	asi	252	Continuua/asi_ashi/stimulus001.wav	both	5	1
207	conshert	5	818	step3	concert	253	Continuua/concert_conshert/stimulus003.wav	one	5	3
207	shettlement	5	869	step5	settlement	254	Continuua/settlement_shettlement/stimulus005.wav	one	5	5
207	monshoon	5	1520	step7	monsoon	255	Continuua/monsoon_monshoon/stimulus007.wav	one	5	7
207	shector	5	653	step3	sector	256	Continuua/sector_shector/stimulus003.wav	one	5	3
207	tashel	5	685	step1	tassel	257	Continuua/tassel_tashel/stimulus001.wav	one	5	1
207	croishant	5	2285	step2	croissant	258	Continuua/croissant_croishant/stimulus002.wav	one	5	2
207	shement	5	582	step1	cement	259	Continuua/cement_shement/stimulus001.wav	one	5	1
207	galakshy	1	1113	step9	galaxy	260	Continuua/galaxy_galakshy/stimulus009.wav	one	5	9
207	ashi	1	694	step7	asi	261	Continuua/asi_ashi/stimulus007.wav	both	5	7
207	shidewalk	1	934	step11	sidewalk	262	Continuua/sidewalk_shidewalk/stimulus011.wav	one	5	11
207	galakshy	5	872	step5	galaxy	263	Continuua/galaxy_galakshy/stimulus005.wav	one	5	5
207	shack	5	683	step1	sack	264	Continuua/sack_shack/stimulus001.wav	both	5	1
207	shunroof	5	805	step2	sunroof	265	Continuua/sunroof_shunroof/stimulus002.wav	one	5	2
207	medishine	1	726	step10	medicine	266	Continuua/medicine_medishine/stimulus010.wav	one	5	10
207	foshil	5	733	step1	fossil	267	Continuua/fossil_foshil/stimulus001.wav	one	5	1
207	curshor	5	587	step1	cursor	268	Continuua/cursor_curshor/stimulus001.wav	one	5	1
207	penshil	1	713	step9	pencil	269	Continuua/pencil_penshil/stimulus009.wav	one	5	9
207	penshil	5	690	step1	pencil	270	Continuua/pencil_penshil/stimulus001.wav	one	5	1
207	shunroof	5	727	step4	sunroof	271	Continuua/sunroof_shunroof/stimulus004.wav	one	5	4
207	shailboat	1	882	step9	sailboat	272	Continuua/sailboat_shailboat/stimulus009.wav	one	5	9
207	sheminar	5	735	step4	seminar	273	Continuua/seminar_sheminar/stimulus004.wav	one	5	4
207	curshor	5	650	step4	cursor	274	Continuua/cursor_curshor/stimulus004.wav	one	5	4
207	shatellite	1	690	step8	satellite	275	Continuua/satellite_shatellite/stimulus008.wav	one	5	8
207	conshert	1	798	step11	concert	276	Continuua/concert_conshert/stimulus011.wav	one	5	11
207	faushet	5	1017	step3	faucet	277	Continuua/faucet_faushet/stimulus003.wav	one	5	3
207	dinoshaur	5	2171	step4	dinosaur	278	Continuua/dinosaur_dinoshaur/stimulus004.wav	one	5	4
207	ashi	1	1262	step10	asi	279	Continuua/asi_ashi/stimulus010.wav	both	5	10
207	dansher	5	651	step2	dancer	280	Continuua/dancer_dansher/stimulus002.wav	one	5	2
207	conshert	5	1123	step5	concert	281	Continuua/concert_conshert/stimulus005.wav	one	5	5
207	shement	5	858	step5	cement	282	Continuua/cement_shement/stimulus005.wav	one	5	5
207	galakshy	5	2333	step7	galaxy	283	Continuua/galaxy_galakshy/stimulus007.wav	one	5	7
207	medishine	5	867	step5	medicine	284	Continuua/medicine_medishine/stimulus005.wav	one	5	5
207	tashel	1	965	step8	tassel	285	Continuua/tassel_tashel/stimulus008.wav	one	5	8
207	shelery	5	796	step5	celery	286	Continuua/celery_shelery/stimulus005.wav	one	5	5
207	foshil	1	835	step10	fossil	287	Continuua/fossil_foshil/stimulus010.wav	one	5	10
207	shy	1	800	step7	sigh	288	Continuua/sigh_shy/stimulus007.wav	both	5	7
207	shocket	1	779	step9	socket	289	Continuua/socket_shocket/stimulus009.wav	one	5	9
207	sheremony	1	1159	step9	ceremony	290	Continuua/ceremony_sheremony/stimulus009.wav	one	5	9
207	dinoshaur	5	1153	step1	dinosaur	291	Continuua/dinosaur_dinoshaur/stimulus001.wav	one	5	1
207	shunroof	5	712	step1	sunroof	292	Continuua/sunroof_shunroof/stimulus001.wav	one	5	1
207	shock	5	586	step3	sock	293	Continuua/sock_shock/stimulus003.wav	both	5	3
207	shettlement	5	652	step3	settlement	294	Continuua/settlement_shettlement/stimulus003.wav	one	5	3
207	cashtle	1	723	step8	castle	295	Continuua/castle_cashle/stimulus008.wav	one	5	8
207	sheremony	5	1407	step6	ceremony	296	Continuua/ceremony_sheremony/stimulus006.wav	one	5	6
207	shement	5	705	step4	cement	297	Continuua/cement_shement/stimulus004.wav	one	5	4
207	curtshy	1	788	step9	curtsy	298	Continuua/curtsy_curtshy/stimulus009.wav	one	5	9
207	shyrup	5	921	step4	syrup	299	Continuua/syrup_shyrup/stimulus004.wav	one	5	4
207	mishile	5	617	step1	missile	300	Continuua/missile_mishile/stimulus001.wav	one	5	1
207	shubmarine	5	2049	step7	submarine	301	Continuua/submarine_shubmarine/stimulus007.wav	one	5	7
207	shettlement	1	766	step9	settlement	302	Continuua/settlement_shettlement/stimulus009.wav	one	5	9
207	penshil	1	788	step7	pencil	303	Continuua/pencil_penshil/stimulus007.wav	one	5	7
207	sheminar	1	723	step7	seminar	304	Continuua/seminar_sheminar/stimulus007.wav	one	5	7
207	medishine	5	1321	step7	medicine	305	Continuua/medicine_medishine/stimulus007.wav	one	5	7
207	shement	1	655	step11	cement	306	Continuua/cement_shement/stimulus011.wav	one	5	11
207	shaddle	1	1100	step9	saddle	307	Continuua/saddle_shaddle/stimulus009.wav	one	5	9
207	galakshy	5	831	step3	galaxy	308	Continuua/galaxy_galakshy/stimulus003.wav	one	5	3
207	shocket	1	736	step8	socket	309	Continuua/socket_shocket/stimulus008.wav	one	5	8
207	shunroof	1	691	step7	sunroof	310	Continuua/sunroof_shunroof/stimulus007.wav	one	5	7
207	currenshy	5	907	step4	currency	311	Continuua/currency_currenshy/stimulus004.wav	one	5	4
207	pharmashy	1	885	step9	pharmacy	312	Continuua/pharmacy_pharmashy/stimulus009.wav	one	5	9
207	faushet	1	814	step9	faucet	313	Continuua/faucet_faushet/stimulus009.wav	one	5	9
207	croishant	5	1591	step6	croissant	314	Continuua/croissant_croishant/stimulus006.wav	one	5	6
207	shement	5	740	step2	cement	315	Continuua/cement_shement/stimulus002.wav	one	5	2
207	shubmarine	5	754	step3	submarine	316	Continuua/submarine_shubmarine/stimulus003.wav	one	5	3
207	sheremony	1	696	step11	ceremony	317	Continuua/ceremony_sheremony/stimulus011.wav	one	5	11
207	curtshy	5	565	step4	curtsy	318	Continuua/curtsy_curtshy/stimulus004.wav	one	5	4
207	curshor	5	808	step5	cursor	319	Continuua/cursor_curshor/stimulus005.wav	one	5	5
207	shettlement	5	629	step2	settlement	320	Continuua/settlement_shettlement/stimulus002.wav	one	5	2
207	shin	5	1353	step5	sin	321	Continuua/sin_shin/stimulus005.wav	both	5	5
207	shement	1	769	step7	cement	322	Continuua/cement_shement/stimulus007.wav	one	5	7
207	shy	1	723	step10	sigh	323	Continuua/sigh_shy/stimulus010.wav	both	5	10
207	shy	5	650	step5	sigh	324	Continuua/sigh_shy/stimulus005.wav	both	5	5
207	whishtle	5	761	step3	whistle	325	Continuua/whistle_whishle/stimulus003.wav	one	5	3
207	takshi	5	624	step1	taxi	326	Continuua/taxi_takshi/stimulus001.wav	one	5	1
207	shafari	5	916	step5	safari	327	Continuua/safari_shafari/stimulus005.wav	one	5	5
207	shettlement	1	1064	step6	settlement	328	Continuua/settlement_shettlement/stimulus006.wav	one	5	6
207	dinoshaur	1	1513	step8	dinosaur	329	Continuua/dinosaur_dinoshaur/stimulus008.wav	one	5	8
207	croishant	1	905	step9	croissant	330	Continuua/croissant_croishant/stimulus009.wav	one	5	9
207	curshor	1	658	step8	cursor	331	Continuua/cursor_curshor/stimulus008.wav	one	5	8
207	pharmashy	5	987	step4	pharmacy	332	Continuua/pharmacy_pharmashy/stimulus004.wav	one	5	4
207	croishant	5	805	step4	croissant	333	Continuua/croissant_croishant/stimulus004.wav	one	5	4
207	shector	1	764	step6	sector	334	Continuua/sector_shector/stimulus006.wav	one	5	6
207	mishile	5	1009	step6	missile	335	Continuua/missile_mishile/stimulus006.wav	one	5	6
207	croishant	1	1029	step10	croissant	336	Continuua/croissant_croishant/stimulus010.wav	one	5	10
207	medishine	5	1289	step1	medicine	337	Continuua/medicine_medishine/stimulus001.wav	one	5	1
207	penshil	5	720	step4	pencil	338	Continuua/pencil_penshil/stimulus004.wav	one	5	4
207	shurfboard	5	3390	step7	surfboard	339	Continuua/surfboard_shurfboard/stimulus007.wav	one	5	7
207	sheremony	1	900	step10	ceremony	340	Continuua/ceremony_sheremony/stimulus010.wav	one	5	10
207	shack	1	679	step7	sack	341	Continuua/sack_shack/stimulus007.wav	both	5	7
207	pharmashy	5	1009	step3	pharmacy	342	Continuua/pharmacy_pharmashy/stimulus003.wav	one	5	3
207	shector	5	732	step2	sector	343	Continuua/sector_shector/stimulus002.wav	one	5	2
207	whishtle	5	615	step1	whistle	344	Continuua/whistle_whishle/stimulus001.wav	one	5	1
207	conshert	5	757	step2	concert	345	Continuua/concert_conshert/stimulus002.wav	one	5	2
207	dansher	5	663	step1	dancer	346	Continuua/dancer_dansher/stimulus001.wav	one	5	1
207	foshil	5	947	step6	fossil	347	Continuua/fossil_foshil/stimulus006.wav	one	5	6
207	sheminar	5	1311	step6	seminar	348	Continuua/seminar_sheminar/stimulus006.wav	one	5	6
207	caroushel	1	954	step10	carousel	349	Continuua/carousel_caroushel/stimulus010.wav	one	5	10
207	whishtle	5	832	step6	whistle	350	Continuua/whistle_whishle/stimulus006.wav	one	5	6
207	dinoshaur	5	1568	step7	dinosaur	351	Continuua/dinosaur_dinoshaur/stimulus007.wav	one	5	7
207	conshert	5	699	step1	concert	352	Continuua/concert_conshert/stimulus001.wav	one	5	1
207	mishile	5	798	step3	missile	353	Continuua/missile_mishile/stimulus003.wav	one	5	3
207	galakshy	1	1319	step8	galaxy	354	Continuua/galaxy_galakshy/stimulus008.wav	one	5	8
207	shyrup	1	699	step11	syrup	355	Continuua/syrup_shyrup/stimulus011.wav	one	5	11
207	shunroof	5	703	step3	sunroof	356	Continuua/sunroof_shunroof/stimulus003.wav	one	5	3
207	shock	1	1049	step7	sock	357	Continuua/sock_shock/stimulus007.wav	both	5	7
207	monshoon	1	824	step10	monsoon	358	Continuua/monsoon_monshoon/stimulus010.wav	one	5	10
207	shubmarine	5	1234	step1	submarine	359	Continuua/submarine_shubmarine/stimulus001.wav	one	5	1
207	sheremony	5	684	step2	ceremony	360	Continuua/ceremony_sheremony/stimulus002.wav	one	5	2
207	shement	1	753	step9	cement	361	Continuua/cement_shement/stimulus009.wav	one	5	9
207	tashel	5	1729	step3	tassel	362	Continuua/tassel_tashel/stimulus003.wav	one	5	3
207	medishine	5	956	step6	medicine	363	Continuua/medicine_medishine/stimulus006.wav	one	5	6
207	curtshy	5	650	step1	curtsy	364	Continuua/curtsy_curtshy/stimulus001.wav	one	5	1
207	dinoshaur	5	841	step2	dinosaur	365	Continuua/dinosaur_dinoshaur/stimulus002.wav	one	5	2
207	curtshy	5	756	step6	curtsy	366	Continuua/curtsy_curtshy/stimulus006.wav	one	5	6
207	faushet	5	753	step2	faucet	367	Continuua/faucet_faushet/stimulus002.wav	one	5	2
207	sheminar	1	569	step10	seminar	368	Continuua/seminar_sheminar/stimulus010.wav	one	5	10
207	shailboat	5	626	step4	sailboat	369	Continuua/sailboat_shailboat/stimulus004.wav	one	5	4
207	dansher	5	906	step5	dancer	370	Continuua/dancer_dansher/stimulus005.wav	one	5	5
207	sheremony	5	627	step1	ceremony	371	Continuua/ceremony_sheremony/stimulus001.wav	one	5	1
207	monshoon	1	1392	step6	monsoon	372	Continuua/monsoon_monshoon/stimulus006.wav	one	5	6
207	shilver	5	600	step2	silver	373	Continuua/silver_shilver/stimulus002.wav	one	5	2
207	faushet	5	782	step4	faucet	374	Continuua/faucet_faushet/stimulus004.wav	one	5	4
207	croishant	1	943	step8	croissant	375	Continuua/croissant_croishant/stimulus008.wav	one	5	8
207	shofa	5	699	step6	sofa	376	Continuua/sofa_shofa/stimulus006.wav	one	5	6
207	shin	5	599	step2	sin	377	Continuua/sin_shin/stimulus002.wav	both	5	2
207	shocket	1	708	step10	socket	378	Continuua/socket_shocket/stimulus010.wav	one	5	10
207	takshi	1	1056	step9	taxi	379	Continuua/taxi_takshi/stimulus009.wav	one	5	9
207	currenshy	1	874	step6	currency	380	Continuua/currency_currenshy/stimulus006.wav	one	5	6
207	shocket	1	2405	step6	socket	381	Continuua/socket_shocket/stimulus006.wav	one	5	6
207	shurfboard	5	1103	step6	surfboard	382	Continuua/surfboard_shurfboard/stimulus006.wav	one	5	6
207	shector	5	764	step4	sector	383	Continuua/sector_shector/stimulus004.wav	one	5	4
207	penshil	5	698	step3	pencil	384	Continuua/pencil_penshil/stimulus003.wav	one	5	3
207	shofa	1	841	step8	sofa	385	Continuua/sofa_shofa/stimulus008.wav	one	5	8
207	tashel	1	795	step9	tassel	386	Continuua/tassel_tashel/stimulus009.wav	one	5	9
207	pharmashy	1	1549	step8	pharmacy	387	Continuua/pharmacy_pharmashy/stimulus008.wav	one	5	8
207	sheminar	1	746	step11	seminar	388	Continuua/seminar_sheminar/stimulus011.wav	one	5	11
207	shaddle	5	620	step3	saddle	389	Continuua/saddle_shaddle/stimulus003.wav	one	5	3
207	caroushel	5	1149	step6	carousel	390	Continuua/carousel_caroushel/stimulus006.wav	one	5	6
207	shunroof	5	2724	step6	sunroof	391	Continuua/sunroof_shunroof/stimulus006.wav	one	5	6
207	sheiling	1	765	step11	ceiling	392	Continuua/ceiling_sheiling/stimulus011.wav	one	5	11
207	shector	1	775	step10	sector	393	Continuua/sector_shector/stimulus010.wav	one	5	10
207	shector	5	803	step1	sector	394	Continuua/sector_shector/stimulus001.wav	one	5	1
207	shock	5	1147	step6	sock	395	Continuua/sock_shock/stimulus006.wav	both	5	6
207	curshor	1	806	step11	cursor	396	Continuua/cursor_curshor/stimulus011.wav	one	5	11
207	pharmashy	5	1941	step1	pharmacy	397	Continuua/pharmacy_pharmashy/stimulus001.wav	one	5	1
207	shofa	1	797	step11	sofa	398	Continuua/sofa_shofa/stimulus011.wav	one	5	11
207	shilver	5	645	step5	silver	399	Continuua/silver_shilver/stimulus005.wav	one	5	5
207	shaddle	1	1208	step8	saddle	400	Continuua/saddle_shaddle/stimulus008.wav	one	5	8
207	takshi	1	1262	step8	taxi	401	Continuua/taxi_takshi/stimulus008.wav	one	5	8
207	foshil	5	927	step2	fossil	402	Continuua/fossil_foshil/stimulus002.wav	one	5	2
207	shidewalk	1	1707	step7	sidewalk	403	Continuua/sidewalk_shidewalk/stimulus007.wav	one	5	7
207	shaddle	5	681	step6	saddle	404	Continuua/saddle_shaddle/stimulus006.wav	one	5	6
207	shidewalk	5	618	step2	sidewalk	405	Continuua/sidewalk_shidewalk/stimulus002.wav	one	5	2
207	shaddle	5	694	step5	saddle	406	Continuua/saddle_shaddle/stimulus005.wav	one	5	5
207	foshil	1	950	step11	fossil	407	Continuua/fossil_foshil/stimulus011.wav	one	5	11
207	shocket	1	4176	step7	socket	408	Continuua/socket_shocket/stimulus007.wav	one	5	7
207	sheiling	1	653	step9	ceiling	409	Continuua/ceiling_sheiling/stimulus009.wav	one	5	9
207	shailboat	1	1143	step8	sailboat	410	Continuua/sailboat_shailboat/stimulus008.wav	one	5	8
207	mishile	1	693	step11	missile	411	Continuua/missile_mishile/stimulus011.wav	one	5	11
207	takshi	5	810	step5	taxi	412	Continuua/taxi_takshi/stimulus005.wav	one	5	5
207	monshoon	1	799	step8	monsoon	413	Continuua/monsoon_monshoon/stimulus008.wav	one	5	8
207	caroushel	5	1274	step8	carousel	414	Continuua/carousel_caroushel/stimulus008.wav	one	5	8
207	shyrup	1	676	step9	syrup	415	Continuua/syrup_shyrup/stimulus009.wav	one	5	9
207	shidewalk	5	577	step3	sidewalk	416	Continuua/sidewalk_shidewalk/stimulus003.wav	one	5	3
207	shyrup	1	747	step6	syrup	417	Continuua/syrup_shyrup/stimulus006.wav	one	5	6
207	curtshy	5	596	step2	curtsy	418	Continuua/curtsy_curtshy/stimulus002.wav	one	5	2
207	caroushel	5	820	step5	carousel	419	Continuua/carousel_caroushel/stimulus005.wav	one	5	5
207	shelery	5	1577	step6	celery	420	Continuua/celery_shelery/stimulus006.wav	one	5	6
207	croishant	5	957	step1	croissant	421	Continuua/croissant_croishant/stimulus001.wav	one	5	1
207	medishine	1	1105	step11	medicine	422	Continuua/medicine_medishine/stimulus011.wav	one	5	11
207	faushet	1	718	step11	faucet	423	Continuua/faucet_faushet/stimulus011.wav	one	5	11
207	shatellite	1	608	step9	satellite	424	Continuua/satellite_shatellite/stimulus009.wav	one	5	9
207	shettlement	5	653	step4	settlement	425	Continuua/settlement_shettlement/stimulus004.wav	one	5	4
207	curtshy	5	1486	step7	curtsy	426	Continuua/curtsy_curtshy/stimulus007.wav	one	5	7
207	pharmashy	5	1443	step6	pharmacy	427	Continuua/pharmacy_pharmashy/stimulus006.wav	one	5	6
207	caroushel	5	3152	step9	carousel	428	Continuua/carousel_caroushel/stimulus009.wav	one	5	9
207	shofa	5	736	step3	sofa	429	Continuua/sofa_shofa/stimulus003.wav	one	5	3
207	shidewalk	1	727	step10	sidewalk	430	Continuua/sidewalk_shidewalk/stimulus010.wav	one	5	10
207	shement	1	679	step10	cement	431	Continuua/cement_shement/stimulus010.wav	one	5	10
207	foshil	5	951	step7	fossil	432	Continuua/fossil_foshil/stimulus007.wav	one	5	7
207	croishant	5	1116	step7	croissant	433	Continuua/croissant_croishant/stimulus007.wav	one	5	7
207	shailboat	5	701	step2	sailboat	434	Continuua/sailboat_shailboat/stimulus002.wav	one	5	2
207	shin	5	680	step4	sin	435	Continuua/sin_shin/stimulus004.wav	both	5	4
207	shurfboard	1	710	step8	surfboard	436	Continuua/surfboard_shurfboard/stimulus008.wav	one	5	8
207	cashtle	1	790	step10	castle	437	Continuua/castle_cashle/stimulus010.wav	one	5	10
207	shafari	1	833	step7	safari	438	Continuua/safari_shafari/stimulus007.wav	one	5	7
207	dinoshaur	1	846	step9	dinosaur	439	Continuua/dinosaur_dinoshaur/stimulus009.wav	one	5	9
207	shidewalk	5	913	step5	sidewalk	440	Continuua/sidewalk_shidewalk/stimulus005.wav	one	5	5
207	cashtle	5	714	step1	castle	441	Continuua/castle_cashle/stimulus001.wav	one	5	1
207	monshoon	1	786	step11	monsoon	442	Continuua/monsoon_monshoon/stimulus011.wav	one	5	11
207	shilver	1	641	step10	silver	443	Continuua/silver_shilver/stimulus010.wav	one	5	10
207	caroushel	1	783	step11	carousel	444	Continuua/carousel_caroushel/stimulus011.wav	one	5	11
207	medishine	5	899	step2	medicine	445	Continuua/medicine_medishine/stimulus002.wav	one	5	2
207	curshor	1	1010	step10	cursor	446	Continuua/cursor_curshor/stimulus010.wav	one	5	10
207	penshil	1	695	step6	pencil	447	Continuua/pencil_penshil/stimulus006.wav	one	5	6
207	galakshy	5	938	step6	galaxy	448	Continuua/galaxy_galakshy/stimulus006.wav	one	5	6
207	shin	1	2036	step7	sin	449	Continuua/sin_shin/stimulus007.wav	both	5	7
207	foshil	5	1347	step3	fossil	450	Continuua/fossil_foshil/stimulus003.wav	one	5	3
207	shidewalk	1	647	step9	sidewalk	451	Continuua/sidewalk_shidewalk/stimulus009.wav	one	5	9
207	shatellite	5	602	step2	satellite	452	Continuua/satellite_shatellite/stimulus002.wav	one	5	2
207	curshor	1	868	step9	cursor	453	Continuua/cursor_curshor/stimulus009.wav	one	5	9
207	ashi	5	779	step3	asi	454	Continuua/asi_ashi/stimulus003.wav	both	5	3
207	shocket	5	660	step3	socket	455	Continuua/socket_shocket/stimulus003.wav	one	5	3
207	galakshy	1	1061	step11	galaxy	456	Continuua/galaxy_galakshy/stimulus011.wav	one	5	11
207	shunroof	1	654	step11	sunroof	457	Continuua/sunroof_shunroof/stimulus011.wav	one	5	11
207	shack	5	881	step5	sack	458	Continuua/sack_shack/stimulus005.wav	both	5	5
207	shelery	5	568	step1	celery	459	Continuua/celery_shelery/stimulus001.wav	one	5	1
207	shelery	5	565	step2	celery	460	Continuua/celery_shelery/stimulus002.wav	one	5	2
207	shement	1	573	step8	cement	461	Continuua/cement_shement/stimulus008.wav	one	5	8
207	shelery	1	1560	step7	celery	462	Continuua/celery_shelery/stimulus007.wav	one	5	7
207	galakshy	5	1251	step2	galaxy	463	Continuua/galaxy_galakshy/stimulus002.wav	one	5	2
207	tashel	1	887	step10	tassel	464	Continuua/tassel_tashel/stimulus010.wav	one	5	10
207	shubmarine	5	604	step4	submarine	465	Continuua/submarine_shubmarine/stimulus004.wav	one	5	4
207	tashel	5	696	step2	tassel	466	Continuua/tassel_tashel/stimulus002.wav	one	5	2
207	curtshy	5	1083	step5	curtsy	467	Continuua/curtsy_curtshy/stimulus005.wav	one	5	5
207	shailboat	1	739	step11	sailboat	468	Continuua/sailboat_shailboat/stimulus011.wav	one	5	11
207	shafari	5	585	step2	safari	469	Continuua/safari_shafari/stimulus002.wav	one	5	2
207	shubmarine	5	1533	step8	submarine	470	Continuua/submarine_shubmarine/stimulus008.wav	one	5	8
207	tashel	5	632	step6	tassel	471	Continuua/tassel_tashel/stimulus006.wav	one	5	6
207	shailboat	5	813	step3	sailboat	472	Continuua/sailboat_shailboat/stimulus003.wav	one	5	3
207	currenshy	5	744	step2	currency	473	Continuua/currency_currenshy/stimulus002.wav	one	5	2
207	croishant	5	934	step5	croissant	474	Continuua/croissant_croishant/stimulus005.wav	one	5	5
207	dansher	5	738	step3	dancer	475	Continuua/dancer_dansher/stimulus003.wav	one	5	3
207	curtshy	1	863	step11	curtsy	476	Continuua/curtsy_curtshy/stimulus011.wav	one	5	11
207	whishtle	1	646	step8	whistle	477	Continuua/whistle_whishle/stimulus008.wav	one	5	8
207	shailboat	1	798	step10	sailboat	478	Continuua/sailboat_shailboat/stimulus010.wav	one	5	10
207	shurfboard	5	744	step5	surfboard	479	Continuua/surfboard_shurfboard/stimulus005.wav	one	5	5
207	curshor	5	751	step3	cursor	480	Continuua/cursor_curshor/stimulus003.wav	one	5	3
207	shilver	5	940	step6	silver	481	Continuua/silver_shilver/stimulus006.wav	one	5	6
207	pharmashy	5	903	step5	pharmacy	482	Continuua/pharmacy_pharmashy/stimulus005.wav	one	5	5
207	shyrup	1	991	step10	syrup	483	Continuua/syrup_shyrup/stimulus010.wav	one	5	10
207	tashel	5	579	step5	tassel	484	Continuua/tassel_tashel/stimulus005.wav	one	5	5
208	conshert	5	2769	step2	concert	1	Continuua/concert_conshert/stimulus002.wav	one	5	2
208	sheiling	1	915	step7	ceiling	2	Continuua/ceiling_sheiling/stimulus007.wav	one	5	7
208	caroushel	1	800	step8	carousel	3	Continuua/carousel_caroushel/stimulus008.wav	one	5	8
208	tashel	1	1070	step6	tassel	4	Continuua/tassel_tashel/stimulus006.wav	one	5	6
208	penshil	1	837	step11	pencil	5	Continuua/pencil_penshil/stimulus011.wav	one	5	11
208	shidewalk	1	615	step11	sidewalk	6	Continuua/sidewalk_shidewalk/stimulus011.wav	one	5	11
208	monshoon	1	843	step7	monsoon	7	Continuua/monsoon_monshoon/stimulus007.wav	one	5	7
208	faushet	5	1077	step4	faucet	8	Continuua/faucet_faushet/stimulus004.wav	one	5	4
208	shy	1	1171	step6	sigh	9	Continuua/sigh_shy/stimulus006.wav	both	5	6
208	foshil	1	889	step10	fossil	10	Continuua/fossil_foshil/stimulus010.wav	one	5	10
208	shock	1	1144	step9	sock	11	Continuua/sock_shock/stimulus009.wav	both	5	9
208	ashi	5	1024	step3	asi	12	Continuua/asi_ashi/stimulus003.wav	both	5	3
208	shatellite	1	676	step6	satellite	13	Continuua/satellite_shatellite/stimulus006.wav	one	5	6
208	foshil	1	743	step8	fossil	14	Continuua/fossil_foshil/stimulus008.wav	one	5	8
208	shack	1	669	step10	sack	15	Continuua/sack_shack/stimulus010.wav	both	5	10
208	caroushel	1	837	step10	carousel	16	Continuua/carousel_caroushel/stimulus010.wav	one	5	10
208	foshil	5	1314	step1	fossil	17	Continuua/fossil_foshil/stimulus001.wav	one	5	1
208	mishile	5	1088	step5	missile	18	Continuua/missile_mishile/stimulus005.wav	one	5	5
208	sheminar	5	1078	step3	seminar	19	Continuua/seminar_sheminar/stimulus003.wav	one	5	3
208	sheiling	1	1444	step9	ceiling	20	Continuua/ceiling_sheiling/stimulus009.wav	one	5	9
208	shelery	1	1008	step7	celery	21	Continuua/celery_shelery/stimulus007.wav	one	5	7
208	penshil	5	896	step2	pencil	22	Continuua/pencil_penshil/stimulus002.wav	one	5	2
208	caroushel	1	1614	step6	carousel	23	Continuua/carousel_caroushel/stimulus006.wav	one	5	6
208	shidewalk	1	774	step9	sidewalk	24	Continuua/sidewalk_shidewalk/stimulus009.wav	one	5	9
208	shailboat	5	713	step5	sailboat	25	Continuua/sailboat_shailboat/stimulus005.wav	one	5	5
208	medishine	1	1801	step8	medicine	26	Continuua/medicine_medishine/stimulus008.wav	one	5	8
208	medishine	1	865	step11	medicine	27	Continuua/medicine_medishine/stimulus011.wav	one	5	11
208	shurfboard	5	1596	step3	surfboard	28	Continuua/surfboard_shurfboard/stimulus003.wav	one	5	3
208	dinoshaur	5	852	step2	dinosaur	29	Continuua/dinosaur_dinoshaur/stimulus002.wav	one	5	2
208	croishant	5	698	step1	croissant	30	Continuua/croissant_croishant/stimulus001.wav	one	5	1
208	shailboat	1	1634	step9	sailboat	31	Continuua/sailboat_shailboat/stimulus009.wav	one	5	9
208	shock	5	879	step4	sock	32	Continuua/sock_shock/stimulus004.wav	both	5	4
208	shubmarine	5	856	step5	submarine	33	Continuua/submarine_shubmarine/stimulus005.wav	one	5	5
208	tashel	1	950	step7	tassel	34	Continuua/tassel_tashel/stimulus007.wav	one	5	7
208	conshert	1	713	step9	concert	35	Continuua/concert_conshert/stimulus009.wav	one	5	9
208	penshil	1	1223	step8	pencil	36	Continuua/pencil_penshil/stimulus008.wav	one	5	8
208	shyrup	1	1075	step8	syrup	37	Continuua/syrup_shyrup/stimulus008.wav	one	5	8
208	caroushel	5	1055	step2	carousel	38	Continuua/carousel_caroushel/stimulus002.wav	one	5	2
208	caroushel	5	1708	step4	carousel	39	Continuua/carousel_caroushel/stimulus004.wav	one	5	4
208	shilver	1	820	step7	silver	40	Continuua/silver_shilver/stimulus007.wav	one	5	7
208	medishine	5	958	step2	medicine	41	Continuua/medicine_medishine/stimulus002.wav	one	5	2
208	shector	1	636	step10	sector	42	Continuua/sector_shector/stimulus010.wav	one	5	10
208	shafari	5	633	step1	safari	43	Continuua/safari_shafari/stimulus001.wav	one	5	1
208	shocket	5	972	step2	socket	44	Continuua/socket_shocket/stimulus002.wav	one	5	2
208	shack	1	733	step8	sack	45	Continuua/sack_shack/stimulus008.wav	both	5	8
208	galakshy	5	698	step6	galaxy	46	Continuua/galaxy_galakshy/stimulus006.wav	one	5	6
208	sheminar	5	868	step2	seminar	47	Continuua/seminar_sheminar/stimulus002.wav	one	5	2
208	shector	5	816	step3	sector	48	Continuua/sector_shector/stimulus003.wav	one	5	3
208	whishtle	1	973	step7	whistle	49	Continuua/whistle_whishle/stimulus007.wav	one	5	7
208	shement	5	768	step3	cement	50	Continuua/cement_shement/stimulus003.wav	one	5	3
208	ashi	1	748	step7	asi	51	Continuua/asi_ashi/stimulus007.wav	both	5	7
208	penshil	1	1058	step7	pencil	52	Continuua/pencil_penshil/stimulus007.wav	one	5	7
208	mishile	5	949	step3	missile	53	Continuua/missile_mishile/stimulus003.wav	one	5	3
208	shatellite	1	3108	step9	satellite	54	Continuua/satellite_shatellite/stimulus009.wav	one	5	9
208	shy	5	1240	step3	sigh	55	Continuua/sigh_shy/stimulus003.wav	both	5	3
208	shement	5	1410	step6	cement	56	Continuua/cement_shement/stimulus006.wav	one	5	6
208	dansher	5	2147	step6	dancer	57	Continuua/dancer_dansher/stimulus006.wav	one	5	6
208	shyrup	5	1187	step3	syrup	58	Continuua/syrup_shyrup/stimulus003.wav	one	5	3
208	shidewalk	1	806	step8	sidewalk	59	Continuua/sidewalk_shidewalk/stimulus008.wav	one	5	8
208	takshi	5	916	step6	taxi	60	Continuua/taxi_takshi/stimulus006.wav	one	5	6
208	foshil	5	1447	step3	fossil	61	Continuua/fossil_foshil/stimulus003.wav	one	5	3
208	shunroof	1	1065	step7	sunroof	62	Continuua/sunroof_shunroof/stimulus007.wav	one	5	7
208	shunroof	1	1125	step6	sunroof	63	Continuua/sunroof_shunroof/stimulus006.wav	one	5	6
208	pharmashy	5	1204	step5	pharmacy	64	Continuua/pharmacy_pharmashy/stimulus005.wav	one	5	5
208	medishine	5	1107	step1	medicine	65	Continuua/medicine_medishine/stimulus001.wav	one	5	1
208	mishile	1	873	step10	missile	66	Continuua/missile_mishile/stimulus010.wav	one	5	10
208	tashel	1	1152	step9	tassel	67	Continuua/tassel_tashel/stimulus009.wav	one	5	9
208	galakshy	5	435	step4	galaxy	68	Continuua/galaxy_galakshy/stimulus004.wav	one	5	4
208	monshoon	5	1153	step2	monsoon	69	Continuua/monsoon_monshoon/stimulus002.wav	one	5	2
208	currenshy	1	1597	step7	currency	70	Continuua/currency_currenshy/stimulus007.wav	one	5	7
208	conshert	1	779	step7	concert	71	Continuua/concert_conshert/stimulus007.wav	one	5	7
208	galakshy	5	794	step1	galaxy	72	Continuua/galaxy_galakshy/stimulus001.wav	one	5	1
208	mishile	5	820	step2	missile	73	Continuua/missile_mishile/stimulus002.wav	one	5	2
208	shurfboard	5	1117	step4	surfboard	74	Continuua/surfboard_shurfboard/stimulus004.wav	one	5	4
208	currenshy	1	899	step6	currency	75	Continuua/currency_currenshy/stimulus006.wav	one	5	6
208	dansher	1	1350	step9	dancer	76	Continuua/dancer_dansher/stimulus009.wav	one	5	9
208	shubmarine	1	1038	step10	submarine	77	Continuua/submarine_shubmarine/stimulus010.wav	one	5	10
208	croishant	1	870	step7	croissant	78	Continuua/croissant_croishant/stimulus007.wav	one	5	7
208	sheremony	1	751	step8	ceremony	79	Continuua/ceremony_sheremony/stimulus008.wav	one	5	8
208	galakshy	1	929	step11	galaxy	80	Continuua/galaxy_galakshy/stimulus011.wav	one	5	11
208	shaddle	1	618	step10	saddle	81	Continuua/saddle_shaddle/stimulus010.wav	one	5	10
208	tashel	1	1424	step8	tassel	82	Continuua/tassel_tashel/stimulus008.wav	one	5	8
208	dansher	5	878	step5	dancer	83	Continuua/dancer_dansher/stimulus005.wav	one	5	5
208	shin	5	760	step4	sin	84	Continuua/sin_shin/stimulus004.wav	both	5	4
208	shilver	1	562	step8	silver	85	Continuua/silver_shilver/stimulus008.wav	one	5	8
208	mishile	5	751	step6	missile	86	Continuua/missile_mishile/stimulus006.wav	one	5	6
208	shurfboard	1	1503	step7	surfboard	87	Continuua/surfboard_shurfboard/stimulus007.wav	one	5	7
208	sheminar	5	718	step6	seminar	88	Continuua/seminar_sheminar/stimulus006.wav	one	5	6
208	shettlement	1	516	step6	settlement	89	Continuua/settlement_shettlement/stimulus006.wav	one	5	6
208	shement	5	725	step4	cement	90	Continuua/cement_shement/stimulus004.wav	one	5	4
208	takshi	5	879	step2	taxi	91	Continuua/taxi_takshi/stimulus002.wav	one	5	2
208	conshert	5	945	step5	concert	92	Continuua/concert_conshert/stimulus005.wav	one	5	5
208	shaddle	1	1490	step8	saddle	93	Continuua/saddle_shaddle/stimulus008.wav	one	5	8
208	shocket	5	823	step4	socket	94	Continuua/socket_shocket/stimulus004.wav	one	5	4
208	galakshy	5	677	step3	galaxy	95	Continuua/galaxy_galakshy/stimulus003.wav	one	5	3
208	sheiling	5	607	step3	ceiling	96	Continuua/ceiling_sheiling/stimulus003.wav	one	5	3
208	ashi	5	768	step2	asi	97	Continuua/asi_ashi/stimulus002.wav	both	5	2
208	dansher	5	1123	step4	dancer	98	Continuua/dancer_dansher/stimulus004.wav	one	5	4
208	dansher	5	933	step3	dancer	99	Continuua/dancer_dansher/stimulus003.wav	one	5	3
208	shunroof	5	1119	step1	sunroof	100	Continuua/sunroof_shunroof/stimulus001.wav	one	5	1
208	shafari	5	867	step2	safari	101	Continuua/safari_shafari/stimulus002.wav	one	5	2
208	shilver	1	582	step6	silver	102	Continuua/silver_shilver/stimulus006.wav	one	5	6
208	shurfboard	1	951	step10	surfboard	103	Continuua/surfboard_shurfboard/stimulus010.wav	one	5	10
208	tashel	5	1025	step1	tassel	104	Continuua/tassel_tashel/stimulus001.wav	one	5	1
208	croishant	5	734	step4	croissant	105	Continuua/croissant_croishant/stimulus004.wav	one	5	4
208	foshil	1	1218	step11	fossil	106	Continuua/fossil_foshil/stimulus011.wav	one	5	11
208	shaddle	5	1266	step1	saddle	107	Continuua/saddle_shaddle/stimulus001.wav	one	5	1
208	shement	1	1108	step9	cement	108	Continuua/cement_shement/stimulus009.wav	one	5	9
208	whishtle	1	1051	step10	whistle	109	Continuua/whistle_whishle/stimulus010.wav	one	5	10
208	curshor	1	905	step10	cursor	110	Continuua/cursor_curshor/stimulus010.wav	one	5	10
208	dinoshaur	5	1805	step6	dinosaur	111	Continuua/dinosaur_dinoshaur/stimulus006.wav	one	5	6
208	shidewalk	5	1210	step6	sidewalk	112	Continuua/sidewalk_shidewalk/stimulus006.wav	one	5	6
208	shettlement	5	1189	step3	settlement	113	Continuua/settlement_shettlement/stimulus003.wav	one	5	3
208	shy	5	1013	step4	sigh	114	Continuua/sigh_shy/stimulus004.wav	both	5	4
208	curtshy	5	725	step5	curtsy	115	Continuua/curtsy_curtshy/stimulus005.wav	one	5	5
208	shelery	1	625	step11	celery	116	Continuua/celery_shelery/stimulus011.wav	one	5	11
208	sheiling	5	632	step1	ceiling	117	Continuua/ceiling_sheiling/stimulus001.wav	one	5	1
208	conshert	5	987	step3	concert	118	Continuua/concert_conshert/stimulus003.wav	one	5	3
208	conshert	1	635	step6	concert	119	Continuua/concert_conshert/stimulus006.wav	one	5	6
208	shocket	1	573	step10	socket	120	Continuua/socket_shocket/stimulus010.wav	one	5	10
208	croishant	5	885	step2	croissant	121	Continuua/croissant_croishant/stimulus002.wav	one	5	2
208	shafari	5	680	step3	safari	122	Continuua/safari_shafari/stimulus003.wav	one	5	3
208	shofa	5	798	step4	sofa	123	Continuua/sofa_shofa/stimulus004.wav	one	5	4
208	dinoshaur	5	1433	step7	dinosaur	124	Continuua/dinosaur_dinoshaur/stimulus007.wav	one	5	7
208	shurfboard	5	1314	step1	surfboard	125	Continuua/surfboard_shurfboard/stimulus001.wav	one	5	1
208	curtshy	1	935	step11	curtsy	126	Continuua/curtsy_curtshy/stimulus011.wav	one	5	11
208	shofa	1	673	step11	sofa	127	Continuua/sofa_shofa/stimulus011.wav	one	5	11
208	shettlement	5	1140	step4	settlement	128	Continuua/settlement_shettlement/stimulus004.wav	one	5	4
208	galakshy	5	808	step2	galaxy	129	Continuua/galaxy_galakshy/stimulus002.wav	one	5	2
208	takshi	1	1282	step8	taxi	130	Continuua/taxi_takshi/stimulus008.wav	one	5	8
208	shofa	1	873	step8	sofa	131	Continuua/sofa_shofa/stimulus008.wav	one	5	8
208	curtshy	5	758	step6	curtsy	132	Continuua/curtsy_curtshy/stimulus006.wav	one	5	6
208	shettlement	5	809	step1	settlement	133	Continuua/settlement_shettlement/stimulus001.wav	one	5	1
208	shyrup	5	1253	step6	syrup	134	Continuua/syrup_shyrup/stimulus006.wav	one	5	6
208	shement	5	723	step2	cement	135	Continuua/cement_shement/stimulus002.wav	one	5	2
208	shidewalk	5	756	step5	sidewalk	136	Continuua/sidewalk_shidewalk/stimulus005.wav	one	5	5
208	currenshy	5	719	step2	currency	137	Continuua/currency_currenshy/stimulus002.wav	one	5	2
208	shaddle	1	945	step9	saddle	138	Continuua/saddle_shaddle/stimulus009.wav	one	5	9
208	foshil	5	917	step6	fossil	139	Continuua/fossil_foshil/stimulus006.wav	one	5	6
208	tashel	5	835	step3	tassel	140	Continuua/tassel_tashel/stimulus003.wav	one	5	3
208	croishant	5	848	step3	croissant	141	Continuua/croissant_croishant/stimulus003.wav	one	5	3
208	sheminar	1	903	step7	seminar	142	Continuua/seminar_sheminar/stimulus007.wav	one	5	7
208	shyrup	1	706	step11	syrup	143	Continuua/syrup_shyrup/stimulus011.wav	one	5	11
208	cashtle	5	1093	step1	castle	144	Continuua/castle_cashle/stimulus001.wav	one	5	1
208	shelery	1	993	step10	celery	145	Continuua/celery_shelery/stimulus010.wav	one	5	10
208	curshor	5	947	step4	cursor	146	Continuua/cursor_curshor/stimulus004.wav	one	5	4
208	penshil	1	1283	step9	pencil	147	Continuua/pencil_penshil/stimulus009.wav	one	5	9
208	shyrup	5	1571	step5	syrup	148	Continuua/syrup_shyrup/stimulus005.wav	one	5	5
208	penshil	1	808	step6	pencil	149	Continuua/pencil_penshil/stimulus006.wav	one	5	6
208	shafari	1	847	step10	safari	150	Continuua/safari_shafari/stimulus010.wav	one	5	10
208	mishile	1	1854	step8	missile	151	Continuua/missile_mishile/stimulus008.wav	one	5	8
208	shack	5	776	step5	sack	152	Continuua/sack_shack/stimulus005.wav	both	5	5
208	shyrup	5	749	step4	syrup	153	Continuua/syrup_shyrup/stimulus004.wav	one	5	4
208	shatellite	1	1132	step8	satellite	154	Continuua/satellite_shatellite/stimulus008.wav	one	5	8
208	shocket	5	1418	step6	socket	155	Continuua/socket_shocket/stimulus006.wav	one	5	6
208	dinoshaur	1	1029	step10	dinosaur	156	Continuua/dinosaur_dinoshaur/stimulus010.wav	one	5	10
208	whishtle	5	981	step1	whistle	157	Continuua/whistle_whishle/stimulus001.wav	one	5	1
208	shack	1	839	step7	sack	158	Continuua/sack_shack/stimulus007.wav	both	5	7
208	shy	1	1295	step7	sigh	159	Continuua/sigh_shy/stimulus007.wav	both	5	7
208	shatellite	5	1102	step3	satellite	160	Continuua/satellite_shatellite/stimulus003.wav	one	5	3
208	shunroof	5	981	step2	sunroof	161	Continuua/sunroof_shunroof/stimulus002.wav	one	5	2
208	curshor	1	1091	step8	cursor	162	Continuua/cursor_curshor/stimulus008.wav	one	5	8
208	shelery	5	1245	step1	celery	163	Continuua/celery_shelery/stimulus001.wav	one	5	1
208	shack	1	736	step11	sack	164	Continuua/sack_shack/stimulus011.wav	both	5	11
208	shunroof	1	1097	step11	sunroof	165	Continuua/sunroof_shunroof/stimulus011.wav	one	5	11
208	foshil	5	988	step2	fossil	166	Continuua/fossil_foshil/stimulus002.wav	one	5	2
208	curtshy	5	1066	step4	curtsy	167	Continuua/curtsy_curtshy/stimulus004.wav	one	5	4
208	ashi	1	1098	step9	asi	168	Continuua/asi_ashi/stimulus009.wav	both	5	9
208	curtshy	5	1826	step1	curtsy	169	Continuua/curtsy_curtshy/stimulus001.wav	one	5	1
208	sheiling	1	1010	step10	ceiling	170	Continuua/ceiling_sheiling/stimulus010.wav	one	5	10
208	dansher	5	842	step1	dancer	171	Continuua/dancer_dansher/stimulus001.wav	one	5	1
208	mishile	5	948	step4	missile	172	Continuua/missile_mishile/stimulus004.wav	one	5	4
208	medishine	5	883	step3	medicine	173	Continuua/medicine_medishine/stimulus003.wav	one	5	3
208	shettlement	5	814	step5	settlement	174	Continuua/settlement_shettlement/stimulus005.wav	one	5	5
208	shelery	1	889	step4	celery	175	Continuua/celery_shelery/stimulus004.wav	one	5	4
208	currenshy	5	1154	step4	currency	176	Continuua/currency_currenshy/stimulus004.wav	one	5	4
208	dansher	1	999	step7	dancer	177	Continuua/dancer_dansher/stimulus007.wav	one	5	7
208	shocket	5	791	step3	socket	178	Continuua/socket_shocket/stimulus003.wav	one	5	3
208	shement	1	679	step8	cement	179	Continuua/cement_shement/stimulus008.wav	one	5	8
208	sheminar	1	718	step10	seminar	180	Continuua/seminar_sheminar/stimulus010.wav	one	5	10
208	croishant	1	660	step9	croissant	181	Continuua/croissant_croishant/stimulus009.wav	one	5	9
208	monshoon	1	942	step10	monsoon	182	Continuua/monsoon_monshoon/stimulus010.wav	one	5	10
208	sheminar	1	790	step8	seminar	183	Continuua/seminar_sheminar/stimulus008.wav	one	5	8
208	shailboat	5	615	step2	sailboat	184	Continuua/sailboat_shailboat/stimulus002.wav	one	5	2
208	shack	5	1107	step1	sack	185	Continuua/sack_shack/stimulus001.wav	both	5	1
208	shyrup	5	1045	step1	syrup	186	Continuua/syrup_shyrup/stimulus001.wav	one	5	1
208	croishant	1	673	step10	croissant	187	Continuua/croissant_croishant/stimulus010.wav	one	5	10
208	shunroof	1	861	step8	sunroof	188	Continuua/sunroof_shunroof/stimulus008.wav	one	5	8
208	faushet	1	910	step6	faucet	189	Continuua/faucet_faushet/stimulus006.wav	one	5	6
208	sheminar	1	712	step9	seminar	190	Continuua/seminar_sheminar/stimulus009.wav	one	5	9
208	medishine	1	844	step10	medicine	191	Continuua/medicine_medishine/stimulus010.wav	one	5	10
208	shofa	5	1200	step2	sofa	192	Continuua/sofa_shofa/stimulus002.wav	one	5	2
208	galakshy	1	1294	step10	galaxy	193	Continuua/galaxy_galakshy/stimulus010.wav	one	5	10
208	ashi	1	1006	step10	asi	194	Continuua/asi_ashi/stimulus010.wav	both	5	10
208	sheremony	5	880	step4	ceremony	195	Continuua/ceremony_sheremony/stimulus004.wav	one	5	4
208	shilver	5	1308	step1	silver	196	Continuua/silver_shilver/stimulus001.wav	one	5	1
208	shettlement	5	707	step2	settlement	197	Continuua/settlement_shettlement/stimulus002.wav	one	5	2
208	sheremony	5	825	step2	ceremony	198	Continuua/ceremony_sheremony/stimulus002.wav	one	5	2
208	sheminar	1	792	step11	seminar	199	Continuua/seminar_sheminar/stimulus011.wav	one	5	11
208	shelery	5	1090	step5	celery	200	Continuua/celery_shelery/stimulus005.wav	one	5	5
208	sheminar	5	1046	step1	seminar	201	Continuua/seminar_sheminar/stimulus001.wav	one	5	1
208	dansher	1	1528	step11	dancer	202	Continuua/dancer_dansher/stimulus011.wav	one	5	11
208	currenshy	1	1334	step9	currency	203	Continuua/currency_currenshy/stimulus009.wav	one	5	9
208	shector	1	694	step8	sector	204	Continuua/sector_shector/stimulus008.wav	one	5	8
208	shubmarine	5	977	step3	submarine	205	Continuua/submarine_shubmarine/stimulus003.wav	one	5	3
208	pharmashy	5	891	step1	pharmacy	206	Continuua/pharmacy_pharmashy/stimulus001.wav	one	5	1
208	cashtle	5	1058	step3	castle	207	Continuua/castle_cashle/stimulus003.wav	one	5	3
208	shunroof	1	970	step9	sunroof	208	Continuua/sunroof_shunroof/stimulus009.wav	one	5	9
208	shelery	5	1259	step2	celery	209	Continuua/celery_shelery/stimulus002.wav	one	5	2
208	pharmashy	1	1206	step8	pharmacy	210	Continuua/pharmacy_pharmashy/stimulus008.wav	one	5	8
208	shocket	5	976	step5	socket	211	Continuua/socket_shocket/stimulus005.wav	one	5	5
208	shunroof	1	779	step10	sunroof	212	Continuua/sunroof_shunroof/stimulus010.wav	one	5	10
208	curtshy	5	1001	step7	curtsy	213	Continuua/curtsy_curtshy/stimulus007.wav	one	5	7
208	faushet	1	1051	step8	faucet	214	Continuua/faucet_faushet/stimulus008.wav	one	5	8
208	shin	1	834	step11	sin	215	Continuua/sin_shin/stimulus011.wav	both	5	11
208	pharmashy	5	1285	step3	pharmacy	216	Continuua/pharmacy_pharmashy/stimulus003.wav	one	5	3
208	faushet	1	1062	step11	faucet	217	Continuua/faucet_faushet/stimulus011.wav	one	5	11
208	shafari	5	1921	step5	safari	218	Continuua/safari_shafari/stimulus005.wav	one	5	5
208	shubmarine	1	843	step8	submarine	219	Continuua/submarine_shubmarine/stimulus008.wav	one	5	8
208	takshi	5	989	step4	taxi	220	Continuua/taxi_takshi/stimulus004.wav	one	5	4
208	ashi	5	803	step1	asi	221	Continuua/asi_ashi/stimulus001.wav	both	5	1
208	takshi	5	794	step1	taxi	222	Continuua/taxi_takshi/stimulus001.wav	one	5	1
208	monshoon	5	870	step5	monsoon	223	Continuua/monsoon_monshoon/stimulus005.wav	one	5	5
208	shidewalk	5	867	step1	sidewalk	224	Continuua/sidewalk_shidewalk/stimulus001.wav	one	5	1
208	shatellite	5	1042	step5	satellite	225	Continuua/satellite_shatellite/stimulus005.wav	one	5	5
208	penshil	1	1081	step10	pencil	226	Continuua/pencil_penshil/stimulus010.wav	one	5	10
208	shofa	5	713	step1	sofa	227	Continuua/sofa_shofa/stimulus001.wav	one	5	1
208	shector	5	648	step4	sector	228	Continuua/sector_shector/stimulus004.wav	one	5	4
208	shailboat	1	983	step8	sailboat	229	Continuua/sailboat_shailboat/stimulus008.wav	one	5	8
208	shin	5	959	step3	sin	230	Continuua/sin_shin/stimulus003.wav	both	5	3
208	shack	5	1528	step3	sack	231	Continuua/sack_shack/stimulus003.wav	both	5	3
208	curshor	5	1119	step1	cursor	232	Continuua/cursor_curshor/stimulus001.wav	one	5	1
208	shocket	1	747	step9	socket	233	Continuua/socket_shocket/stimulus009.wav	one	5	9
208	monshoon	5	1048	step4	monsoon	234	Continuua/monsoon_monshoon/stimulus004.wav	one	5	4
208	shurfboard	1	1283	step9	surfboard	235	Continuua/surfboard_shurfboard/stimulus009.wav	one	5	9
208	shofa	1	1323	step10	sofa	236	Continuua/sofa_shofa/stimulus010.wav	one	5	10
208	shatellite	5	651	step4	satellite	237	Continuua/satellite_shatellite/stimulus004.wav	one	5	4
208	mishile	1	693	step11	missile	238	Continuua/missile_mishile/stimulus011.wav	one	5	11
208	shement	5	848	step5	cement	239	Continuua/cement_shement/stimulus005.wav	one	5	5
208	shailboat	5	776	step6	sailboat	240	Continuua/sailboat_shailboat/stimulus006.wav	one	5	6
208	curshor	1	823	step11	cursor	241	Continuua/cursor_curshor/stimulus011.wav	one	5	11
208	shaddle	5	1123	step6	saddle	242	Continuua/saddle_shaddle/stimulus006.wav	one	5	6
208	medishine	1	915	step9	medicine	243	Continuua/medicine_medishine/stimulus009.wav	one	5	9
208	shurfboard	5	726	step2	surfboard	244	Continuua/surfboard_shurfboard/stimulus002.wav	one	5	2
208	shack	1	878	step9	sack	245	Continuua/sack_shack/stimulus009.wav	both	5	9
208	shettlement	1	750	step10	settlement	246	Continuua/settlement_shettlement/stimulus010.wav	one	5	10
208	shafari	1	835	step9	safari	247	Continuua/safari_shafari/stimulus009.wav	one	5	9
208	conshert	1	830	step11	concert	248	Continuua/concert_conshert/stimulus011.wav	one	5	11
208	shidewalk	1	1047	step10	sidewalk	249	Continuua/sidewalk_shidewalk/stimulus010.wav	one	5	10
208	shilver	1	835	step11	silver	250	Continuua/silver_shilver/stimulus011.wav	one	5	11
208	shelery	1	616	step9	celery	251	Continuua/celery_shelery/stimulus009.wav	one	5	9
208	shurfboard	1	645	step11	surfboard	252	Continuua/surfboard_shurfboard/stimulus011.wav	one	5	11
208	pharmashy	5	1369	step4	pharmacy	253	Continuua/pharmacy_pharmashy/stimulus004.wav	one	5	4
208	pharmashy	5	1392	step2	pharmacy	254	Continuua/pharmacy_pharmashy/stimulus002.wav	one	5	2
208	shettlement	1	658	step8	settlement	255	Continuua/settlement_shettlement/stimulus008.wav	one	5	8
208	shatellite	1	1377	step11	satellite	256	Continuua/satellite_shatellite/stimulus011.wav	one	5	11
208	sheiling	1	985	step11	ceiling	257	Continuua/ceiling_sheiling/stimulus011.wav	one	5	11
208	shector	5	875	step5	sector	258	Continuua/sector_shector/stimulus005.wav	one	5	5
208	whishtle	5	710	step3	whistle	259	Continuua/whistle_whishle/stimulus003.wav	one	5	3
208	penshil	5	690	step3	pencil	260	Continuua/pencil_penshil/stimulus003.wav	one	5	3
208	dinoshaur	5	866	step1	dinosaur	261	Continuua/dinosaur_dinoshaur/stimulus001.wav	one	5	1
208	shailboat	5	948	step7	sailboat	262	Continuua/sailboat_shailboat/stimulus007.wav	one	5	7
208	shurfboard	5	994	step5	surfboard	263	Continuua/surfboard_shurfboard/stimulus005.wav	one	5	5
208	shunroof	5	976	step4	sunroof	264	Continuua/sunroof_shunroof/stimulus004.wav	one	5	4
208	shubmarine	5	855	step6	submarine	265	Continuua/submarine_shubmarine/stimulus006.wav	one	5	6
208	shock	5	676	step6	sock	266	Continuua/sock_shock/stimulus006.wav	both	5	6
208	shaddle	1	895	step7	saddle	267	Continuua/saddle_shaddle/stimulus007.wav	one	5	7
208	shocket	1	810	step8	socket	268	Continuua/socket_shocket/stimulus008.wav	one	5	8
208	shilver	5	663	step2	silver	269	Continuua/silver_shilver/stimulus002.wav	one	5	2
208	faushet	1	1846	step7	faucet	270	Continuua/faucet_faushet/stimulus007.wav	one	5	7
208	mishile	1	880	step9	missile	271	Continuua/missile_mishile/stimulus009.wav	one	5	9
208	shunroof	5	655	step3	sunroof	272	Continuua/sunroof_shunroof/stimulus003.wav	one	5	3
208	galakshy	1	1118	step8	galaxy	273	Continuua/galaxy_galakshy/stimulus008.wav	one	5	8
208	sheiling	5	975	step6	ceiling	274	Continuua/ceiling_sheiling/stimulus006.wav	one	5	6
208	foshil	5	1797	step7	fossil	275	Continuua/fossil_foshil/stimulus007.wav	one	5	7
208	shack	5	1070	step2	sack	276	Continuua/sack_shack/stimulus002.wav	both	5	2
208	shement	5	1039	step1	cement	277	Continuua/cement_shement/stimulus001.wav	one	5	1
208	curshor	5	1216	step6	cursor	278	Continuua/cursor_curshor/stimulus006.wav	one	5	6
208	curshor	5	754	step2	cursor	279	Continuua/cursor_curshor/stimulus002.wav	one	5	2
208	shaddle	1	715	step11	saddle	280	Continuua/saddle_shaddle/stimulus011.wav	one	5	11
208	curshor	5	1192	step3	cursor	281	Continuua/cursor_curshor/stimulus003.wav	one	5	3
208	shin	5	840	step2	sin	282	Continuua/sin_shin/stimulus002.wav	both	5	2
208	dansher	1	1286	step10	dancer	283	Continuua/dancer_dansher/stimulus010.wav	one	5	10
208	sheiling	5	900	step5	ceiling	284	Continuua/ceiling_sheiling/stimulus005.wav	one	5	5
208	shector	1	1434	step9	sector	285	Continuua/sector_shector/stimulus009.wav	one	5	9
208	tashel	5	1150	step5	tassel	286	Continuua/tassel_tashel/stimulus005.wav	one	5	5
208	whishtle	1	1077	step9	whistle	287	Continuua/whistle_whishle/stimulus009.wav	one	5	9
208	shaddle	5	1254	step2	saddle	288	Continuua/saddle_shaddle/stimulus002.wav	one	5	2
208	shocket	1	864	step7	socket	289	Continuua/socket_shocket/stimulus007.wav	one	5	7
208	takshi	1	1144	step10	taxi	290	Continuua/taxi_takshi/stimulus010.wav	one	5	10
208	shatellite	5	963	step7	satellite	291	Continuua/satellite_shatellite/stimulus007.wav	one	5	7
208	tashel	5	794	step4	tassel	292	Continuua/tassel_tashel/stimulus004.wav	one	5	4
208	monshoon	1	1298	step11	monsoon	293	Continuua/monsoon_monshoon/stimulus011.wav	one	5	11
208	whishtle	5	770	step2	whistle	294	Continuua/whistle_whishle/stimulus002.wav	one	5	2
208	shettlement	1	733	step9	settlement	295	Continuua/settlement_shettlement/stimulus009.wav	one	5	9
208	shock	5	610	step2	sock	296	Continuua/sock_shock/stimulus002.wav	both	5	2
208	shidewalk	5	1465	step2	sidewalk	297	Continuua/sidewalk_shidewalk/stimulus002.wav	one	5	2
208	currenshy	5	993	step1	currency	298	Continuua/currency_currenshy/stimulus001.wav	one	5	1
208	ashi	5	998	step5	asi	299	Continuua/asi_ashi/stimulus005.wav	both	5	5
208	caroushel	1	917	step7	carousel	300	Continuua/carousel_caroushel/stimulus007.wav	one	5	7
208	currenshy	5	847	step3	currency	301	Continuua/currency_currenshy/stimulus003.wav	one	5	3
208	shyrup	1	705	step7	syrup	302	Continuua/syrup_shyrup/stimulus007.wav	one	5	7
208	cashtle	1	786	step8	castle	303	Continuua/castle_cashle/stimulus008.wav	one	5	8
208	shelery	5	617	step8	celery	304	Continuua/celery_shelery/stimulus008.wav	one	5	8
208	dinoshaur	1	952	step9	dinosaur	305	Continuua/dinosaur_dinoshaur/stimulus009.wav	one	5	9
208	cashtle	5	1643	step6	castle	306	Continuua/castle_cashle/stimulus006.wav	one	5	6
208	shy	1	893	step11	sigh	307	Continuua/sigh_shy/stimulus011.wav	both	5	11
208	caroushel	5	1030	step3	carousel	308	Continuua/carousel_caroushel/stimulus003.wav	one	5	3
208	caroushel	1	808	step11	carousel	309	Continuua/carousel_caroushel/stimulus011.wav	one	5	11
208	foshil	5	1032	step5	fossil	310	Continuua/fossil_foshil/stimulus005.wav	one	5	5
208	shofa	5	735	step5	sofa	311	Continuua/sofa_shofa/stimulus005.wav	one	5	5
208	sheremony	1	944	step10	ceremony	312	Continuua/ceremony_sheremony/stimulus010.wav	one	5	10
208	shement	5	1132	step7	cement	313	Continuua/cement_shement/stimulus007.wav	one	5	7
208	currenshy	1	1610	step10	currency	314	Continuua/currency_currenshy/stimulus010.wav	one	5	10
208	penshil	5	1250	step4	pencil	315	Continuua/pencil_penshil/stimulus004.wav	one	5	4
208	whishtle	5	962	step6	whistle	316	Continuua/whistle_whishle/stimulus006.wav	one	5	6
208	faushet	5	1221	step3	faucet	317	Continuua/faucet_faushet/stimulus003.wav	one	5	3
208	dinoshaur	1	902	step11	dinosaur	318	Continuua/dinosaur_dinoshaur/stimulus011.wav	one	5	11
208	shilver	5	739	step4	silver	319	Continuua/silver_shilver/stimulus004.wav	one	5	4
208	medishine	5	1117	step7	medicine	320	Continuua/medicine_medishine/stimulus007.wav	one	5	7
208	penshil	5	906	step1	pencil	321	Continuua/pencil_penshil/stimulus001.wav	one	5	1
208	sheremony	5	801	step6	ceremony	322	Continuua/ceremony_sheremony/stimulus006.wav	one	5	6
208	shyrup	1	759	step10	syrup	323	Continuua/syrup_shyrup/stimulus010.wav	one	5	10
208	tashel	5	752	step2	tassel	324	Continuua/tassel_tashel/stimulus002.wav	one	5	2
208	takshi	5	665	step5	taxi	325	Continuua/taxi_takshi/stimulus005.wav	one	5	5
208	monshoon	1	997	step6	monsoon	326	Continuua/monsoon_monshoon/stimulus006.wav	one	5	6
208	penshil	5	732	step5	pencil	327	Continuua/pencil_penshil/stimulus005.wav	one	5	5
208	shack	5	1452	step6	sack	328	Continuua/sack_shack/stimulus006.wav	both	5	6
208	medishine	5	1065	step4	medicine	329	Continuua/medicine_medishine/stimulus004.wav	one	5	4
208	shidewalk	5	781	step4	sidewalk	330	Continuua/sidewalk_shidewalk/stimulus004.wav	one	5	4
208	shement	1	694	step10	cement	331	Continuua/cement_shement/stimulus010.wav	one	5	10
208	pharmashy	1	1423	step11	pharmacy	332	Continuua/pharmacy_pharmashy/stimulus011.wav	one	5	11
208	shilver	1	854	step9	silver	333	Continuua/silver_shilver/stimulus009.wav	one	5	9
208	shafari	5	1327	step4	safari	334	Continuua/safari_shafari/stimulus004.wav	one	5	4
208	foshil	1	982	step9	fossil	335	Continuua/fossil_foshil/stimulus009.wav	one	5	9
208	faushet	5	1757	step1	faucet	336	Continuua/faucet_faushet/stimulus001.wav	one	5	1
208	sheminar	5	1138	step5	seminar	337	Continuua/seminar_sheminar/stimulus005.wav	one	5	5
208	shy	1	2263	step9	sigh	338	Continuua/sigh_shy/stimulus009.wav	both	5	9
208	shafari	1	1171	step11	safari	339	Continuua/safari_shafari/stimulus011.wav	one	5	11
208	shidewalk	1	1630	step7	sidewalk	340	Continuua/sidewalk_shidewalk/stimulus007.wav	one	5	7
208	shement	1	1073	step11	cement	341	Continuua/cement_shement/stimulus011.wav	one	5	11
208	shilver	5	1019	step3	silver	342	Continuua/silver_shilver/stimulus003.wav	one	5	3
208	shin	5	1272	step1	sin	343	Continuua/sin_shin/stimulus001.wav	both	5	1
208	caroushel	5	1050	step1	carousel	344	Continuua/carousel_caroushel/stimulus001.wav	one	5	1
208	dinoshaur	5	1397	step3	dinosaur	345	Continuua/dinosaur_dinoshaur/stimulus003.wav	one	5	3
208	shailboat	1	2137	step10	sailboat	346	Continuua/sailboat_shailboat/stimulus010.wav	one	5	10
208	shack	5	805	step4	sack	347	Continuua/sack_shack/stimulus004.wav	both	5	4
208	shocket	5	1228	step1	socket	348	Continuua/socket_shocket/stimulus001.wav	one	5	1
208	shock	5	932	step1	sock	349	Continuua/sock_shock/stimulus001.wav	both	5	1
208	shelery	5	638	step3	celery	350	Continuua/celery_shelery/stimulus003.wav	one	5	3
208	curshor	1	1134	step7	cursor	351	Continuua/cursor_curshor/stimulus007.wav	one	5	7
208	pharmashy	5	1740	step7	pharmacy	352	Continuua/pharmacy_pharmashy/stimulus007.wav	one	5	7
208	whishtle	5	740	step5	whistle	353	Continuua/whistle_whishle/stimulus005.wav	one	5	5
208	shin	5	1660	step6	sin	354	Continuua/sin_shin/stimulus006.wav	both	5	6
208	shock	5	855	step5	sock	355	Continuua/sock_shock/stimulus005.wav	both	5	5
208	cashtle	1	923	step10	castle	356	Continuua/castle_cashle/stimulus010.wav	one	5	10
208	shubmarine	5	980	step4	submarine	357	Continuua/submarine_shubmarine/stimulus004.wav	one	5	4
208	curtshy	1	861	step9	curtsy	358	Continuua/curtsy_curtshy/stimulus009.wav	one	5	9
208	shector	5	630	step2	sector	359	Continuua/sector_shector/stimulus002.wav	one	5	2
208	takshi	5	875	step7	taxi	360	Continuua/taxi_takshi/stimulus007.wav	one	5	7
208	galakshy	5	824	step5	galaxy	361	Continuua/galaxy_galakshy/stimulus005.wav	one	5	5
208	caroushel	1	931	step9	carousel	362	Continuua/carousel_caroushel/stimulus009.wav	one	5	9
208	shy	5	704	step1	sigh	363	Continuua/sigh_shy/stimulus001.wav	both	5	1
208	tashel	1	1206	step11	tassel	364	Continuua/tassel_tashel/stimulus011.wav	one	5	11
208	shatellite	5	890	step1	satellite	365	Continuua/satellite_shatellite/stimulus001.wav	one	5	1
208	shofa	1	712	step9	sofa	366	Continuua/sofa_shofa/stimulus009.wav	one	5	9
208	shaddle	5	615	step3	saddle	367	Continuua/saddle_shaddle/stimulus003.wav	one	5	3
208	shector	5	763	step1	sector	368	Continuua/sector_shector/stimulus001.wav	one	5	1
208	caroushel	5	1351	step5	carousel	369	Continuua/carousel_caroushel/stimulus005.wav	one	5	5
208	shubmarine	5	1130	step7	submarine	370	Continuua/submarine_shubmarine/stimulus007.wav	one	5	7
208	pharmashy	1	1140	step9	pharmacy	371	Continuua/pharmacy_pharmashy/stimulus009.wav	one	5	9
208	sheiling	1	983	step8	ceiling	372	Continuua/ceiling_sheiling/stimulus008.wav	one	5	8
208	currenshy	5	890	step5	currency	373	Continuua/currency_currenshy/stimulus005.wav	one	5	5
208	takshi	5	790	step9	taxi	374	Continuua/taxi_takshi/stimulus009.wav	one	5	9
208	croishant	1	763	step8	croissant	375	Continuua/croissant_croishant/stimulus008.wav	one	5	8
208	shailboat	5	726	step1	sailboat	376	Continuua/sailboat_shailboat/stimulus001.wav	one	5	1
208	whishtle	1	1014	step8	whistle	377	Continuua/whistle_whishle/stimulus008.wav	one	5	8
208	medishine	5	687	step5	medicine	378	Continuua/medicine_medishine/stimulus005.wav	one	5	5
208	dinoshaur	5	830	step4	dinosaur	379	Continuua/dinosaur_dinoshaur/stimulus004.wav	one	5	4
208	monshoon	1	926	step8	monsoon	380	Continuua/monsoon_monshoon/stimulus008.wav	one	5	8
208	ashi	1	824	step11	asi	381	Continuua/asi_ashi/stimulus011.wav	both	5	11
208	cashtle	5	719	step2	castle	382	Continuua/castle_cashle/stimulus002.wav	one	5	2
208	conshert	1	1197	step10	concert	383	Continuua/concert_conshert/stimulus010.wav	one	5	10
208	shurfboard	5	888	step6	surfboard	384	Continuua/surfboard_shurfboard/stimulus006.wav	one	5	6
208	shilver	5	483	step5	silver	385	Continuua/silver_shilver/stimulus005.wav	one	5	5
208	galakshy	1	1053	step9	galaxy	386	Continuua/galaxy_galakshy/stimulus009.wav	one	5	9
208	sheremony	1	670	step11	ceremony	387	Continuua/ceremony_sheremony/stimulus011.wav	one	5	11
208	dansher	1	798	step8	dancer	388	Continuua/dancer_dansher/stimulus008.wav	one	5	8
208	sheminar	5	737	step4	seminar	389	Continuua/seminar_sheminar/stimulus004.wav	one	5	4
208	pharmashy	5	1171	step6	pharmacy	390	Continuua/pharmacy_pharmashy/stimulus006.wav	one	5	6
208	curshor	1	877	step9	cursor	391	Continuua/cursor_curshor/stimulus009.wav	one	5	9
208	mishile	5	1348	step1	missile	392	Continuua/missile_mishile/stimulus001.wav	one	5	1
208	shailboat	5	844	step4	sailboat	393	Continuua/sailboat_shailboat/stimulus004.wav	one	5	4
208	ashi	5	632	step4	asi	394	Continuua/asi_ashi/stimulus004.wav	both	5	4
208	sheiling	5	642	step2	ceiling	395	Continuua/ceiling_sheiling/stimulus002.wav	one	5	2
208	dinoshaur	1	1645	step8	dinosaur	396	Continuua/dinosaur_dinoshaur/stimulus008.wav	one	5	8
208	shin	1	1569	step8	sin	397	Continuua/sin_shin/stimulus008.wav	both	5	8
208	shofa	1	952	step7	sofa	398	Continuua/sofa_shofa/stimulus007.wav	one	5	7
208	takshi	1	802	step11	taxi	399	Continuua/taxi_takshi/stimulus011.wav	one	5	11
208	shy	1	820	step8	sigh	400	Continuua/sigh_shy/stimulus008.wav	both	5	8
208	shafari	1	1266	step8	safari	401	Continuua/safari_shafari/stimulus008.wav	one	5	8
208	currenshy	1	1925	step8	currency	402	Continuua/currency_currenshy/stimulus008.wav	one	5	8
208	shailboat	1	775	step11	sailboat	403	Continuua/sailboat_shailboat/stimulus011.wav	one	5	11
208	shubmarine	1	671	step2	submarine	404	Continuua/submarine_shubmarine/stimulus002.wav	one	5	2
208	shailboat	5	1272	step3	sailboat	405	Continuua/sailboat_shailboat/stimulus003.wav	one	5	3
208	shock	5	708	step3	sock	406	Continuua/sock_shock/stimulus003.wav	both	5	3
208	shubmarine	1	909	step11	submarine	407	Continuua/submarine_shubmarine/stimulus011.wav	one	5	11
208	conshert	5	684	step4	concert	408	Continuua/concert_conshert/stimulus004.wav	one	5	4
208	cashtle	1	953	step7	castle	409	Continuua/castle_cashle/stimulus007.wav	one	5	7
208	shafari	5	1220	step6	safari	410	Continuua/safari_shafari/stimulus006.wav	one	5	6
208	shelery	5	1103	step6	celery	411	Continuua/celery_shelery/stimulus006.wav	one	5	6
208	shock	1	774	step10	sock	412	Continuua/sock_shock/stimulus010.wav	both	5	10
208	shurfboard	5	1019	step8	surfboard	413	Continuua/surfboard_shurfboard/stimulus008.wav	one	5	8
208	ashi	5	1035	step6	asi	414	Continuua/asi_ashi/stimulus006.wav	both	5	6
208	pharmashy	1	1154	step10	pharmacy	415	Continuua/pharmacy_pharmashy/stimulus010.wav	one	5	10
208	shatellite	5	1007	step2	satellite	416	Continuua/satellite_shatellite/stimulus002.wav	one	5	2
208	shy	5	924	step2	sigh	417	Continuua/sigh_shy/stimulus002.wav	both	5	2
208	shaddle	1	1037	step4	saddle	418	Continuua/saddle_shaddle/stimulus004.wav	one	5	4
208	faushet	1	942	step10	faucet	419	Continuua/faucet_faushet/stimulus010.wav	one	5	10
208	shaddle	1	1250	step5	saddle	420	Continuua/saddle_shaddle/stimulus005.wav	one	5	5
208	shin	5	755	step10	sin	421	Continuua/sin_shin/stimulus010.wav	both	5	10
208	monshoon	1	649	step9	monsoon	422	Continuua/monsoon_monshoon/stimulus009.wav	one	5	9
208	shector	1	1089	step11	sector	423	Continuua/sector_shector/stimulus011.wav	one	5	11
208	sheremony	5	1017	step3	ceremony	424	Continuua/ceremony_sheremony/stimulus003.wav	one	5	3
208	sheremony	1	1389	step7	ceremony	425	Continuua/ceremony_sheremony/stimulus007.wav	one	5	7
208	shubmarine	1	719	step9	submarine	426	Continuua/submarine_shubmarine/stimulus009.wav	one	5	9
208	shin	1	805	step9	sin	427	Continuua/sin_shin/stimulus009.wav	both	5	9
208	foshil	5	1581	step4	fossil	428	Continuua/fossil_foshil/stimulus004.wav	one	5	4
208	shy	1	750	step10	sigh	429	Continuua/sigh_shy/stimulus010.wav	both	5	10
208	shubmarine	5	1168	step1	submarine	430	Continuua/submarine_shubmarine/stimulus001.wav	one	5	1
208	shettlement	1	876	step11	settlement	431	Continuua/settlement_shettlement/stimulus011.wav	one	5	11
208	curtshy	1	1066	step10	curtsy	432	Continuua/curtsy_curtshy/stimulus010.wav	one	5	10
208	shettlement	1	1463	step7	settlement	433	Continuua/settlement_shettlement/stimulus007.wav	one	5	7
208	curtshy	5	964	step2	curtsy	434	Continuua/curtsy_curtshy/stimulus002.wav	one	5	2
208	conshert	5	818	step1	concert	435	Continuua/concert_conshert/stimulus001.wav	one	5	1
208	shocket	1	605	step11	socket	436	Continuua/socket_shocket/stimulus011.wav	one	5	11
208	croishant	5	900	step5	croissant	437	Continuua/croissant_croishant/stimulus005.wav	one	5	5
208	curshor	5	698	step5	cursor	438	Continuua/cursor_curshor/stimulus005.wav	one	5	5
208	galakshy	5	679	step7	galaxy	439	Continuua/galaxy_galakshy/stimulus007.wav	one	5	7
208	faushet	1	933	step9	faucet	440	Continuua/faucet_faushet/stimulus009.wav	one	5	9
208	shofa	5	1064	step3	sofa	441	Continuua/sofa_shofa/stimulus003.wav	one	5	3
208	dinoshaur	5	918	step5	dinosaur	442	Continuua/dinosaur_dinoshaur/stimulus005.wav	one	5	5
208	tashel	1	1108	step10	tassel	443	Continuua/tassel_tashel/stimulus010.wav	one	5	10
208	mishile	5	1087	step7	missile	444	Continuua/missile_mishile/stimulus007.wav	one	5	7
208	whishtle	5	1172	step4	whistle	445	Continuua/whistle_whishle/stimulus004.wav	one	5	4
208	whishtle	1	842	step11	whistle	446	Continuua/whistle_whishle/stimulus011.wav	one	5	11
208	sheiling	5	746	step4	ceiling	447	Continuua/ceiling_sheiling/stimulus004.wav	one	5	4
208	sheremony	5	1003	step1	ceremony	448	Continuua/ceremony_sheremony/stimulus001.wav	one	5	1
208	shock	1	640	step8	sock	449	Continuua/sock_shock/stimulus008.wav	both	5	8
208	shatellite	1	797	step10	satellite	450	Continuua/satellite_shatellite/stimulus010.wav	one	5	10
208	takshi	5	791	step3	taxi	451	Continuua/taxi_takshi/stimulus003.wav	one	5	3
208	shyrup	1	1040	step9	syrup	452	Continuua/syrup_shyrup/stimulus009.wav	one	5	9
208	shafari	5	1584	step7	safari	453	Continuua/safari_shafari/stimulus007.wav	one	5	7
208	cashtle	5	747	step4	castle	454	Continuua/castle_cashle/stimulus004.wav	one	5	4
208	medishine	5	943	step6	medicine	455	Continuua/medicine_medishine/stimulus006.wav	one	5	6
208	faushet	5	854	step5	faucet	456	Continuua/faucet_faushet/stimulus005.wav	one	5	5
208	curtshy	1	1093	step8	curtsy	457	Continuua/curtsy_curtshy/stimulus008.wav	one	5	8
208	cashtle	1	894	step9	castle	458	Continuua/castle_cashle/stimulus009.wav	one	5	9
208	monshoon	5	770	step1	monsoon	459	Continuua/monsoon_monshoon/stimulus001.wav	one	5	1
208	shector	1	896	step6	sector	460	Continuua/sector_shector/stimulus006.wav	one	5	6
208	shector	1	1260	step7	sector	461	Continuua/sector_shector/stimulus007.wav	one	5	7
208	shock	5	981	step7	sock	462	Continuua/sock_shock/stimulus007.wav	both	5	7
208	shunroof	5	1511	step5	sunroof	463	Continuua/sunroof_shunroof/stimulus005.wav	one	5	5
208	shyrup	5	650	step2	syrup	464	Continuua/syrup_shyrup/stimulus002.wav	one	5	2
208	faushet	5	1147	step2	faucet	465	Continuua/faucet_faushet/stimulus002.wav	one	5	2
208	shin	1	600	step7	sin	466	Continuua/sin_shin/stimulus007.wav	both	5	7
208	ashi	1	789	step8	asi	467	Continuua/asi_ashi/stimulus008.wav	both	5	8
208	sheremony	5	825	step5	ceremony	468	Continuua/ceremony_sheremony/stimulus005.wav	one	5	5
208	shidewalk	5	1998	step3	sidewalk	469	Continuua/sidewalk_shidewalk/stimulus003.wav	one	5	3
208	curtshy	5	731	step3	curtsy	470	Continuua/curtsy_curtshy/stimulus003.wav	one	5	3
208	shock	1	806	step11	sock	471	Continuua/sock_shock/stimulus011.wav	both	5	11
208	currenshy	1	902	step11	currency	472	Continuua/currency_currenshy/stimulus011.wav	one	5	11
208	shy	5	1620	step5	sigh	473	Continuua/sigh_shy/stimulus005.wav	both	5	5
208	croishant	1	1002	step11	croissant	474	Continuua/croissant_croishant/stimulus011.wav	one	5	11
208	sheremony	1	718	step9	ceremony	475	Continuua/ceremony_sheremony/stimulus009.wav	one	5	9
208	croishant	5	1074	step6	croissant	476	Continuua/croissant_croishant/stimulus006.wav	one	5	6
208	shofa	5	1023	step6	sofa	477	Continuua/sofa_shofa/stimulus006.wav	one	5	6
208	conshert	5	1075	step8	concert	478	Continuua/concert_conshert/stimulus008.wav	one	5	8
208	cashtle	5	1163	step5	castle	479	Continuua/castle_cashle/stimulus005.wav	one	5	5
208	monshoon	5	1665	step3	monsoon	480	Continuua/monsoon_monshoon/stimulus003.wav	one	5	3
208	cashtle	1	1078	step11	castle	481	Continuua/castle_cashle/stimulus011.wav	one	5	11
208	shin	5	870	step5	sin	482	Continuua/sin_shin/stimulus005.wav	both	5	5
208	shilver	1	806	step10	silver	483	Continuua/silver_shilver/stimulus010.wav	one	5	10
208	dansher	5	1805	step2	dancer	484	Continuua/dancer_dansher/stimulus002.wav	one	5	2
209	shement	1	1560	step7	cement	1	Continuua/cement_shement/stimulus007.wav	one	5	7
209	shettlement	1	1023	step8	settlement	2	Continuua/settlement_shettlement/stimulus008.wav	one	5	8
209	sheiling	5	653	step2	ceiling	3	Continuua/ceiling_sheiling/stimulus002.wav	one	5	2
209	caroushel	5	1021	step5	carousel	4	Continuua/carousel_caroushel/stimulus005.wav	one	5	5
209	cashtle	5	765	step3	castle	5	Continuua/castle_cashle/stimulus003.wav	one	5	3
209	whishtle	1	792	step10	whistle	6	Continuua/whistle_whishle/stimulus010.wav	one	5	10
209	takshi	5	971	step1	taxi	7	Continuua/taxi_takshi/stimulus001.wav	one	5	1
209	curshor	5	767	step3	cursor	8	Continuua/cursor_curshor/stimulus003.wav	one	5	3
209	shyrup	1	668	step10	syrup	9	Continuua/syrup_shyrup/stimulus010.wav	one	5	10
209	shelery	1	930	step9	celery	10	Continuua/celery_shelery/stimulus009.wav	one	5	9
209	croishant	1	1987	step10	croissant	11	Continuua/croissant_croishant/stimulus010.wav	one	5	10
209	cashtle	1	839	step11	castle	12	Continuua/castle_cashle/stimulus011.wav	one	5	11
209	dansher	5	689	step3	dancer	13	Continuua/dancer_dansher/stimulus003.wav	one	5	3
209	shunroof	5	843	step1	sunroof	14	Continuua/sunroof_shunroof/stimulus001.wav	one	5	1
209	curtshy	1	845	step9	curtsy	15	Continuua/curtsy_curtshy/stimulus009.wav	one	5	9
209	shettlement	1	829	step11	settlement	16	Continuua/settlement_shettlement/stimulus011.wav	one	5	11
209	takshi	1	795	step10	taxi	17	Continuua/taxi_takshi/stimulus010.wav	one	5	10
209	shettlement	5	900	step7	settlement	18	Continuua/settlement_shettlement/stimulus007.wav	one	5	7
209	medishine	1	932	step11	medicine	19	Continuua/medicine_medishine/stimulus011.wav	one	5	11
209	cashtle	5	754	step4	castle	20	Continuua/castle_cashle/stimulus004.wav	one	5	4
209	pharmashy	5	987	step5	pharmacy	21	Continuua/pharmacy_pharmashy/stimulus005.wav	one	5	5
209	sheremony	5	1056	step2	ceremony	22	Continuua/ceremony_sheremony/stimulus002.wav	one	5	2
209	sheiling	5	854	step6	ceiling	23	Continuua/ceiling_sheiling/stimulus006.wav	one	5	6
209	shunroof	1	821	step10	sunroof	24	Continuua/sunroof_shunroof/stimulus010.wav	one	5	10
209	shock	1	911	step8	sock	25	Continuua/sock_shock/stimulus008.wav	both	5	8
209	sheremony	5	807	step6	ceremony	26	Continuua/ceremony_sheremony/stimulus006.wav	one	5	6
209	sheminar	1	726	step8	seminar	27	Continuua/seminar_sheminar/stimulus008.wav	one	5	8
209	monshoon	5	609	step1	monsoon	28	Continuua/monsoon_monshoon/stimulus001.wav	one	5	1
209	shy	5	1398	step4	sigh	29	Continuua/sigh_shy/stimulus004.wav	both	5	4
209	mishile	1	780	step11	missile	30	Continuua/missile_mishile/stimulus011.wav	one	5	11
209	shettlement	5	798	step1	settlement	31	Continuua/settlement_shettlement/stimulus001.wav	one	5	1
209	conshert	1	728	step10	concert	32	Continuua/concert_conshert/stimulus010.wav	one	5	10
209	tashel	1	955	step10	tassel	33	Continuua/tassel_tashel/stimulus010.wav	one	5	10
209	shofa	1	697	step11	sofa	34	Continuua/sofa_shofa/stimulus011.wav	one	5	11
209	shidewalk	5	713	step6	sidewalk	35	Continuua/sidewalk_shidewalk/stimulus006.wav	one	5	6
209	shaddle	5	590	step1	saddle	36	Continuua/saddle_shaddle/stimulus001.wav	one	5	1
209	shidewalk	1	736	step9	sidewalk	37	Continuua/sidewalk_shidewalk/stimulus009.wav	one	5	9
209	shurfboard	1	680	step9	surfboard	38	Continuua/surfboard_shurfboard/stimulus009.wav	one	5	9
209	faushet	5	1104	step7	faucet	39	Continuua/faucet_faushet/stimulus007.wav	one	5	7
209	shock	5	866	step4	sock	40	Continuua/sock_shock/stimulus004.wav	both	5	4
209	takshi	5	704	step5	taxi	41	Continuua/taxi_takshi/stimulus005.wav	one	5	5
209	medishine	5	754	step2	medicine	42	Continuua/medicine_medishine/stimulus002.wav	one	5	2
209	shailboat	1	884	step11	sailboat	43	Continuua/sailboat_shailboat/stimulus011.wav	one	5	11
209	ashi	5	918	step1	asi	44	Continuua/asi_ashi/stimulus001.wav	both	5	1
209	shofa	1	802	step7	sofa	45	Continuua/sofa_shofa/stimulus007.wav	one	5	7
209	takshi	5	654	step4	taxi	46	Continuua/taxi_takshi/stimulus004.wav	one	5	4
209	shy	1	709	step9	sigh	47	Continuua/sigh_shy/stimulus009.wav	both	5	9
209	shocket	1	705	step11	socket	48	Continuua/socket_shocket/stimulus011.wav	one	5	11
209	dansher	1	834	step11	dancer	49	Continuua/dancer_dansher/stimulus011.wav	one	5	11
209	monshoon	5	701	step3	monsoon	50	Continuua/monsoon_monshoon/stimulus003.wav	one	5	3
209	shatellite	5	726	step1	satellite	51	Continuua/satellite_shatellite/stimulus001.wav	one	5	1
209	shettlement	5	713	step5	settlement	52	Continuua/settlement_shettlement/stimulus005.wav	one	5	5
209	whishtle	1	622	step11	whistle	53	Continuua/whistle_whishle/stimulus011.wav	one	5	11
209	shock	5	683	step5	sock	54	Continuua/sock_shock/stimulus005.wav	both	5	5
209	shubmarine	5	849	step6	submarine	55	Continuua/submarine_shubmarine/stimulus006.wav	one	5	6
209	shock	5	453	step1	sock	56	Continuua/sock_shock/stimulus001.wav	both	5	1
209	caroushel	5	712	step2	carousel	57	Continuua/carousel_caroushel/stimulus002.wav	one	5	2
209	dinoshaur	5	1239	step4	dinosaur	58	Continuua/dinosaur_dinoshaur/stimulus004.wav	one	5	4
209	faushet	5	828	step2	faucet	59	Continuua/faucet_faushet/stimulus002.wav	one	5	2
209	shack	5	542	step4	sack	60	Continuua/sack_shack/stimulus004.wav	both	5	4
209	shatellite	5	681	step5	satellite	61	Continuua/satellite_shatellite/stimulus005.wav	one	5	5
209	shack	5	827	step6	sack	62	Continuua/sack_shack/stimulus006.wav	both	5	6
209	mishile	1	704	step9	missile	63	Continuua/missile_mishile/stimulus009.wav	one	5	9
209	sheremony	5	820	step4	ceremony	64	Continuua/ceremony_sheremony/stimulus004.wav	one	5	4
209	currenshy	5	1322	step6	currency	65	Continuua/currency_currenshy/stimulus006.wav	one	5	6
209	monshoon	1	853	step8	monsoon	66	Continuua/monsoon_monshoon/stimulus008.wav	one	5	8
209	sheminar	1	1000	step9	seminar	67	Continuua/seminar_sheminar/stimulus009.wav	one	5	9
209	tashel	5	983	step1	tassel	68	Continuua/tassel_tashel/stimulus001.wav	one	5	1
209	monshoon	1	857	step10	monsoon	69	Continuua/monsoon_monshoon/stimulus010.wav	one	5	10
209	caroushel	1	1260	step8	carousel	70	Continuua/carousel_caroushel/stimulus008.wav	one	5	8
209	shubmarine	5	1305	step3	submarine	71	Continuua/submarine_shubmarine/stimulus003.wav	one	5	3
209	whishtle	5	734	step6	whistle	72	Continuua/whistle_whishle/stimulus006.wav	one	5	6
209	shock	5	873	step3	sock	73	Continuua/sock_shock/stimulus003.wav	both	5	3
209	shunroof	5	788	step3	sunroof	74	Continuua/sunroof_shunroof/stimulus003.wav	one	5	3
209	penshil	1	681	step9	pencil	75	Continuua/pencil_penshil/stimulus009.wav	one	5	9
209	conshert	1	735	step11	concert	76	Continuua/concert_conshert/stimulus011.wav	one	5	11
209	curshor	5	1282	step10	cursor	77	Continuua/cursor_curshor/stimulus010.wav	one	5	10
209	foshil	1	1419	step10	fossil	78	Continuua/fossil_foshil/stimulus010.wav	one	5	10
209	dansher	1	886	step10	dancer	79	Continuua/dancer_dansher/stimulus010.wav	one	5	10
209	shilver	1	906	step11	silver	80	Continuua/silver_shilver/stimulus011.wav	one	5	11
209	shement	5	626	step4	cement	81	Continuua/cement_shement/stimulus004.wav	one	5	4
209	shector	5	737	step2	sector	82	Continuua/sector_shector/stimulus002.wav	one	5	2
209	currenshy	1	995	step9	currency	83	Continuua/currency_currenshy/stimulus009.wav	one	5	9
209	medishine	5	836	step1	medicine	84	Continuua/medicine_medishine/stimulus001.wav	one	5	1
209	mishile	1	1469	step10	missile	85	Continuua/missile_mishile/stimulus010.wav	one	5	10
209	shatellite	5	1348	step7	satellite	86	Continuua/satellite_shatellite/stimulus007.wav	one	5	7
209	croishant	1	933	step9	croissant	87	Continuua/croissant_croishant/stimulus009.wav	one	5	9
209	croishant	1	1524	step7	croissant	88	Continuua/croissant_croishant/stimulus007.wav	one	5	7
209	galakshy	1	1559	step10	galaxy	89	Continuua/galaxy_galakshy/stimulus010.wav	one	5	10
209	shidewalk	5	837	step2	sidewalk	90	Continuua/sidewalk_shidewalk/stimulus002.wav	one	5	2
209	curtshy	1	971	step10	curtsy	91	Continuua/curtsy_curtshy/stimulus010.wav	one	5	10
209	shaddle	5	1128	step7	saddle	92	Continuua/saddle_shaddle/stimulus007.wav	one	5	7
209	shofa	5	1062	step6	sofa	93	Continuua/sofa_shofa/stimulus006.wav	one	5	6
209	tashel	1	1274	step11	tassel	94	Continuua/tassel_tashel/stimulus011.wav	one	5	11
209	shelery	1	915	step10	celery	95	Continuua/celery_shelery/stimulus010.wav	one	5	10
209	shy	5	840	step1	sigh	96	Continuua/sigh_shy/stimulus001.wav	both	5	1
209	shatellite	1	1016	step10	satellite	97	Continuua/satellite_shatellite/stimulus010.wav	one	5	10
209	shofa	1	1023	step10	sofa	98	Continuua/sofa_shofa/stimulus010.wav	one	5	10
209	shaddle	5	932	step5	saddle	99	Continuua/saddle_shaddle/stimulus005.wav	one	5	5
209	sheminar	1	1510	step10	seminar	100	Continuua/seminar_sheminar/stimulus010.wav	one	5	10
209	shector	5	886	step4	sector	101	Continuua/sector_shector/stimulus004.wav	one	5	4
209	croishant	5	900	step4	croissant	102	Continuua/croissant_croishant/stimulus004.wav	one	5	4
209	dinoshaur	1	1160	step10	dinosaur	103	Continuua/dinosaur_dinoshaur/stimulus010.wav	one	5	10
209	shy	5	1200	step7	sigh	104	Continuua/sigh_shy/stimulus007.wav	both	5	7
209	caroushel	5	1151	step6	carousel	105	Continuua/carousel_caroushel/stimulus006.wav	one	5	6
209	dinoshaur	5	937	step3	dinosaur	106	Continuua/dinosaur_dinoshaur/stimulus003.wav	one	5	3
209	shilver	5	812	step4	silver	107	Continuua/silver_shilver/stimulus004.wav	one	5	4
209	shector	1	1354	step10	sector	108	Continuua/sector_shector/stimulus010.wav	one	5	10
209	faushet	1	1660	step10	faucet	109	Continuua/faucet_faushet/stimulus010.wav	one	5	10
209	shurfboard	1	1061	step11	surfboard	110	Continuua/surfboard_shurfboard/stimulus011.wav	one	5	11
209	shement	1	877	step11	cement	111	Continuua/cement_shement/stimulus011.wav	one	5	11
209	shyrup	1	649	step9	syrup	112	Continuua/syrup_shyrup/stimulus009.wav	one	5	9
209	shubmarine	5	724	step1	submarine	113	Continuua/submarine_shubmarine/stimulus001.wav	one	5	1
209	shy	1	702	step11	sigh	114	Continuua/sigh_shy/stimulus011.wav	both	5	11
209	shin	5	497	step1	sin	115	Continuua/sin_shin/stimulus001.wav	both	5	1
209	shement	5	541	step1	cement	116	Continuua/cement_shement/stimulus001.wav	one	5	1
209	shelery	1	823	step11	celery	117	Continuua/celery_shelery/stimulus011.wav	one	5	11
209	shailboat	5	851	step3	sailboat	118	Continuua/sailboat_shailboat/stimulus003.wav	one	5	3
209	shock	5	912	step2	sock	119	Continuua/sock_shock/stimulus002.wav	both	5	2
209	shidewalk	1	623	step10	sidewalk	120	Continuua/sidewalk_shidewalk/stimulus010.wav	one	5	10
209	shocket	5	760	step7	socket	121	Continuua/socket_shocket/stimulus007.wav	one	5	7
209	shettlement	5	743	step4	settlement	122	Continuua/settlement_shettlement/stimulus004.wav	one	5	4
209	mishile	5	628	step1	missile	123	Continuua/missile_mishile/stimulus001.wav	one	5	1
209	tashel	5	961	step7	tassel	124	Continuua/tassel_tashel/stimulus007.wav	one	5	7
209	shyrup	5	817	step5	syrup	125	Continuua/syrup_shyrup/stimulus005.wav	one	5	5
209	tashel	5	717	step5	tassel	126	Continuua/tassel_tashel/stimulus005.wav	one	5	5
209	croishant	1	737	step11	croissant	127	Continuua/croissant_croishant/stimulus011.wav	one	5	11
209	croishant	5	696	step2	croissant	128	Continuua/croissant_croishant/stimulus002.wav	one	5	2
209	shy	5	597	step2	sigh	129	Continuua/sigh_shy/stimulus002.wav	both	5	2
209	caroushel	5	698	step1	carousel	130	Continuua/carousel_caroushel/stimulus001.wav	one	5	1
209	croishant	5	979	step5	croissant	131	Continuua/croissant_croishant/stimulus005.wav	one	5	5
209	dinoshaur	5	921	step1	dinosaur	132	Continuua/dinosaur_dinoshaur/stimulus001.wav	one	5	1
209	whishtle	5	585	step5	whistle	133	Continuua/whistle_whishle/stimulus005.wav	one	5	5
209	medishine	5	805	step6	medicine	134	Continuua/medicine_medishine/stimulus006.wav	one	5	6
209	monshoon	1	754	step9	monsoon	135	Continuua/monsoon_monshoon/stimulus009.wav	one	5	9
209	penshil	5	852	step7	pencil	136	Continuua/pencil_penshil/stimulus007.wav	one	5	7
209	shock	5	883	step6	sock	137	Continuua/sock_shock/stimulus006.wav	both	5	6
209	shunroof	5	1032	step5	sunroof	138	Continuua/sunroof_shunroof/stimulus005.wav	one	5	5
209	shofa	5	512	step1	sofa	139	Continuua/sofa_shofa/stimulus001.wav	one	5	1
209	sheiling	1	891	step9	ceiling	140	Continuua/ceiling_sheiling/stimulus009.wav	one	5	9
209	faushet	1	1263	step11	faucet	141	Continuua/faucet_faushet/stimulus011.wav	one	5	11
209	sheminar	1	1913	step11	seminar	142	Continuua/seminar_sheminar/stimulus011.wav	one	5	11
209	pharmashy	1	1730	step9	pharmacy	143	Continuua/pharmacy_pharmashy/stimulus009.wav	one	5	9
209	ashi	5	1490	step5	asi	144	Continuua/asi_ashi/stimulus005.wav	both	5	5
209	shement	1	1695	step8	cement	145	Continuua/cement_shement/stimulus008.wav	one	5	8
209	sheminar	5	667	step3	seminar	146	Continuua/seminar_sheminar/stimulus003.wav	one	5	3
209	pharmashy	1	1225	step8	pharmacy	147	Continuua/pharmacy_pharmashy/stimulus008.wav	one	5	8
209	shector	5	964	step3	sector	148	Continuua/sector_shector/stimulus003.wav	one	5	3
209	faushet	5	787	step5	faucet	149	Continuua/faucet_faushet/stimulus005.wav	one	5	5
209	shafari	1	1273	step7	safari	150	Continuua/safari_shafari/stimulus007.wav	one	5	7
209	cashtle	5	684	step6	castle	151	Continuua/castle_cashle/stimulus006.wav	one	5	6
209	caroushel	5	1256	step3	carousel	152	Continuua/carousel_caroushel/stimulus003.wav	one	5	3
209	dinoshaur	5	1209	step7	dinosaur	153	Continuua/dinosaur_dinoshaur/stimulus007.wav	one	5	7
209	curtshy	5	918	step7	curtsy	154	Continuua/curtsy_curtshy/stimulus007.wav	one	5	7
209	shy	5	1191	step3	sigh	155	Continuua/sigh_shy/stimulus003.wav	both	5	3
209	shocket	1	1557	step9	socket	156	Continuua/socket_shocket/stimulus009.wav	one	5	9
209	shidewalk	5	1055	step4	sidewalk	157	Continuua/sidewalk_shidewalk/stimulus004.wav	one	5	4
209	curshor	1	1254	step11	cursor	158	Continuua/cursor_curshor/stimulus011.wav	one	5	11
209	shector	5	1912	step1	sector	159	Continuua/sector_shector/stimulus001.wav	one	5	1
209	monshoon	5	1646	step7	monsoon	160	Continuua/monsoon_monshoon/stimulus007.wav	one	5	7
209	ashi	1	1233	step11	asi	161	Continuua/asi_ashi/stimulus011.wav	both	5	11
209	medishine	5	999	step7	medicine	162	Continuua/medicine_medishine/stimulus007.wav	one	5	7
209	tashel	1	1723	step8	tassel	163	Continuua/tassel_tashel/stimulus008.wav	one	5	8
209	takshi	5	2210	step6	taxi	164	Continuua/taxi_takshi/stimulus006.wav	one	5	6
209	shailboat	5	616	step5	sailboat	165	Continuua/sailboat_shailboat/stimulus005.wav	one	5	5
209	takshi	5	626	step3	taxi	166	Continuua/taxi_takshi/stimulus003.wav	one	5	3
209	shailboat	5	696	step8	sailboat	167	Continuua/sailboat_shailboat/stimulus008.wav	one	5	8
209	shafari	1	616	step8	safari	168	Continuua/safari_shafari/stimulus008.wav	one	5	8
209	shilver	1	1298	step7	silver	169	Continuua/silver_shilver/stimulus007.wav	one	5	7
209	shelery	1	686	step8	celery	170	Continuua/celery_shelery/stimulus008.wav	one	5	8
209	pharmashy	5	787	step1	pharmacy	171	Continuua/pharmacy_pharmashy/stimulus001.wav	one	5	1
209	sheminar	5	630	step5	seminar	172	Continuua/seminar_sheminar/stimulus005.wav	one	5	5
209	shyrup	1	681	step11	syrup	173	Continuua/syrup_shyrup/stimulus011.wav	one	5	11
209	galakshy	5	981	step7	galaxy	174	Continuua/galaxy_galakshy/stimulus007.wav	one	5	7
209	shubmarine	5	1107	step8	submarine	175	Continuua/submarine_shubmarine/stimulus008.wav	one	5	8
209	shelery	5	763	step4	celery	176	Continuua/celery_shelery/stimulus004.wav	one	5	4
209	shilver	5	576	step6	silver	177	Continuua/silver_shilver/stimulus006.wav	one	5	6
209	currenshy	5	1008	step4	currency	178	Continuua/currency_currenshy/stimulus004.wav	one	5	4
209	curtshy	5	711	step2	curtsy	179	Continuua/curtsy_curtshy/stimulus002.wav	one	5	2
209	shement	1	556	step10	cement	180	Continuua/cement_shement/stimulus010.wav	one	5	10
209	cashtle	1	792	step9	castle	181	Continuua/castle_cashle/stimulus009.wav	one	5	9
209	medishine	5	679	step3	medicine	182	Continuua/medicine_medishine/stimulus003.wav	one	5	3
209	ashi	5	462	step4	asi	183	Continuua/asi_ashi/stimulus004.wav	both	5	4
209	shafari	1	602	step11	safari	184	Continuua/safari_shafari/stimulus011.wav	one	5	11
209	shock	1	962	step11	sock	185	Continuua/sock_shock/stimulus011.wav	both	5	11
209	shunroof	5	757	step4	sunroof	186	Continuua/sunroof_shunroof/stimulus004.wav	one	5	4
209	sheminar	5	754	step6	seminar	187	Continuua/seminar_sheminar/stimulus006.wav	one	5	6
209	penshil	5	561	step3	pencil	188	Continuua/pencil_penshil/stimulus003.wav	one	5	3
209	shidewalk	5	752	step3	sidewalk	189	Continuua/sidewalk_shidewalk/stimulus003.wav	one	5	3
