Subject	Trial	shword	step	sword	wavfile	which	Resp	RT	Sresp	StepNum
201	1	takshi	step1	taxi	Continuua/taxi_takshi/stimulus001.wav	one	1	1835	5	1
201	2	sheminar	step4	seminar	Continuua/seminar_sheminar/stimulus004.wav	one	5	1387	5	4
201	3	medishine	step10	medicine	Continuua/medicine_medishine/stimulus010.wav	one	1	2227	5	10
201	4	shatellite	step7	satellite	Continuua/satellite_shatellite/stimulus007.wav	one	1	2550	5	7
201	5	tashel	step3	tassel	Continuua/tassel_tashel/stimulus003.wav	one	5	1713	5	3
201	6	foshil	step7	fossil	Continuua/fossil_foshil/stimulus007.wav	one	5	1473	5	7
201	7	sheminar	step7	seminar	Continuua/seminar_sheminar/stimulus007.wav	one	1	1176	5	7
201	8	pharmashy	step2	pharmacy	Continuua/pharmacy_pharmashy/stimulus002.wav	one	5	1335	5	2
201	9	shafari	step1	safari	Continuua/safari_shafari/stimulus001.wav	one	5	1085	5	1
201	10	shurfboard	step6	surfboard	Continuua/surfboard_shurfboard/stimulus006.wav	one	5	2088	5	6
201	11	faushet	step11	faucet	Continuua/faucet_faushet/stimulus011.wav	one	1	1252	5	11
201	12	dansher	step3	dancer	Continuua/dancer_dansher/stimulus003.wav	one	5	950	5	3
201	13	faushet	step6	faucet	Continuua/faucet_faushet/stimulus006.wav	one	5	1059	5	6
201	14	cashtle	step5	castle	Continuua/castle_cashle/stimulus005.wav	one	5	779	5	5
201	15	foshil	step4	fossil	Continuua/fossil_foshil/stimulus004.wav	one	5	1189	5	4
201	16	caroushel	step7	carousel	Continuua/carousel_caroushel/stimulus007.wav	one	1	1014	5	7
201	17	shafari	step11	safari	Continuua/safari_shafari/stimulus011.wav	one	1	1606	5	11
201	18	dinoshaur	step7	dinosaur	Continuua/dinosaur_dinoshaur/stimulus007.wav	one	5	2238	5	7
201	19	foshil	step9	fossil	Continuua/fossil_foshil/stimulus009.wav	one	1	1590	5	9
201	20	shatellite	step3	satellite	Continuua/satellite_shatellite/stimulus003.wav	one	5	902	5	3
201	21	mishile	step6	missile	Continuua/missile_mishile/stimulus006.wav	one	5	753	5	6
201	22	shector	step5	sector	Continuua/sector_shector/stimulus005.wav	one	5	1155	5	5
201	23	conshert	step6	concert	Continuua/concert_conshert/stimulus006.wav	one	5	1024	5	6
201	24	curtshy	step2	curtsy	Continuua/curtsy_curtshy/stimulus002.wav	one	5	999	5	2
201	25	shement	step3	cement	Continuua/cement_shement/stimulus003.wav	one	5	941	5	3
201	26	shurfboard	step1	surfboard	Continuua/surfboard_shurfboard/stimulus001.wav	one	5	675	5	1
201	27	shyrup	step5	syrup	Continuua/syrup_shyrup/stimulus005.wav	one	1	2267	5	5
201	28	shettlement	step9	settlement	Continuua/settlement_shettlement/stimulus009.wav	one	1	972	5	9
201	29	galakshy	step3	galaxy	Continuua/galaxy_galakshy/stimulus003.wav	one	5	830	5	3
201	30	takshi	step10	taxi	Continuua/taxi_takshi/stimulus010.wav	one	1	1025	5	10
201	31	pharmashy	step5	pharmacy	Continuua/pharmacy_pharmashy/stimulus005.wav	one	5	1200	5	5
201	32	cashtle	step8	castle	Continuua/castle_cashle/stimulus008.wav	one	1	1829	5	8
201	33	shofa	step4	sofa	Continuua/sofa_shofa/stimulus004.wav	one	5	880	5	4
201	34	cashtle	step7	castle	Continuua/castle_cashle/stimulus007.wav	one	5	1212	5	7
201	35	tashel	step5	tassel	Continuua/tassel_tashel/stimulus005.wav	one	5	930	5	5
201	36	shelery	step3	celery	Continuua/celery_shelery/stimulus003.wav	one	5	917	5	3
201	37	pharmashy	step4	pharmacy	Continuua/pharmacy_pharmashy/stimulus004.wav	one	5	916	5	4
201	38	foshil	step1	fossil	Continuua/fossil_foshil/stimulus001.wav	one	5	1035	5	1
201	39	whishtle	step2	whistle	Continuua/whistle_whishle/stimulus002.wav	one	5	691	5	2
201	40	shaddle	step9	saddle	Continuua/saddle_shaddle/stimulus009.wav	one	5	1018	5	9
201	41	curtshy	step4	curtsy	Continuua/curtsy_curtshy/stimulus004.wav	one	5	876	5	4
201	42	shidewalk	step9	sidewalk	Continuua/sidewalk_shidewalk/stimulus009.wav	one	1	1082	5	9
201	43	shilver	step10	silver	Continuua/silver_shilver/stimulus010.wav	one	1	1185	5	10
201	44	shofa	step3	sofa	Continuua/sofa_shofa/stimulus003.wav	one	5	925	5	3
201	45	mishile	step3	missile	Continuua/missile_mishile/stimulus003.wav	one	5	797	5	3
201	46	sheremony	step10	ceremony	Continuua/ceremony_sheremony/stimulus010.wav	one	1	1219	5	10
201	47	conshert	step7	concert	Continuua/concert_conshert/stimulus007.wav	one	5	1202	5	7
201	48	galakshy	step6	galaxy	Continuua/galaxy_galakshy/stimulus006.wav	one	5	839	5	6
201	49	galakshy	step10	galaxy	Continuua/galaxy_galakshy/stimulus010.wav	one	1	1102	5	10
201	50	sheminar	step8	seminar	Continuua/seminar_sheminar/stimulus008.wav	one	1	1148	5	8
201	51	monshoon	step9	monsoon	Continuua/monsoon_monshoon/stimulus009.wav	one	1	906	5	9
201	52	sheiling	step5	ceiling	Continuua/ceiling_sheiling/stimulus005.wav	one	5	1025	5	5
201	53	tashel	step8	tassel	Continuua/tassel_tashel/stimulus008.wav	one	1	873	5	8
201	54	shunroof	step4	sunroof	Continuua/sunroof_shunroof/stimulus004.wav	one	5	1178	5	4
201	55	sheiling	step9	ceiling	Continuua/ceiling_sheiling/stimulus009.wav	one	1	897	5	9
201	56	dansher	step11	dancer	Continuua/dancer_dansher/stimulus011.wav	one	1	1086	5	11
201	57	shidewalk	step10	sidewalk	Continuua/sidewalk_shidewalk/stimulus010.wav	one	1	825	5	10
201	58	medishine	step2	medicine	Continuua/medicine_medishine/stimulus002.wav	one	5	823	5	2
201	59	croishant	step7	croissant	Continuua/croissant_croishant/stimulus007.wav	one	1	865	5	7
201	60	monshoon	step1	monsoon	Continuua/monsoon_monshoon/stimulus001.wav	one	5	1120	5	1
201	61	whishtle	step3	whistle	Continuua/whistle_whishle/stimulus003.wav	one	5	1064	5	3
201	62	curshor	step4	cursor	Continuua/cursor_curshor/stimulus004.wav	one	5	1444	5	4
201	63	curshor	step8	cursor	Continuua/cursor_curshor/stimulus008.wav	one	1	879	5	8
201	64	cashtle	step4	castle	Continuua/castle_cashle/stimulus004.wav	one	5	630	5	4
201	65	curshor	step10	cursor	Continuua/cursor_curshor/stimulus010.wav	one	5	761	5	10
201	66	conshert	step4	concert	Continuua/concert_conshert/stimulus004.wav	one	5	618	5	4
201	67	shurfboard	step2	surfboard	Continuua/surfboard_shurfboard/stimulus002.wav	one	5	847	5	2
201	68	shurfboard	step7	surfboard	Continuua/surfboard_shurfboard/stimulus007.wav	one	5	1418	5	7
201	69	shunroof	step1	sunroof	Continuua/sunroof_shunroof/stimulus001.wav	one	5	923	5	1
201	70	galakshy	step9	galaxy	Continuua/galaxy_galakshy/stimulus009.wav	one	1	2447	5	9
201	71	shyrup	step6	syrup	Continuua/syrup_shyrup/stimulus006.wav	one	1	1822	5	6
201	72	penshil	step2	pencil	Continuua/pencil_penshil/stimulus002.wav	one	5	769	5	2
201	73	penshil	step10	pencil	Continuua/pencil_penshil/stimulus010.wav	one	5	1488	5	10
201	74	galakshy	step7	galaxy	Continuua/galaxy_galakshy/stimulus007.wav	one	5	1170	5	7
201	75	sheremony	step1	ceremony	Continuua/ceremony_sheremony/stimulus001.wav	one	5	865	5	1
201	76	foshil	step8	fossil	Continuua/fossil_foshil/stimulus008.wav	one	5	1429	5	8
201	77	curtshy	step3	curtsy	Continuua/curtsy_curtshy/stimulus003.wav	one	5	658	5	3
201	78	sheiling	step8	ceiling	Continuua/ceiling_sheiling/stimulus008.wav	one	1	1073	5	8
201	79	shocket	step9	socket	Continuua/socket_shocket/stimulus009.wav	one	1	1233	5	9
201	80	faushet	step9	faucet	Continuua/faucet_faushet/stimulus009.wav	one	1	2060	5	9
201	81	dansher	step5	dancer	Continuua/dancer_dansher/stimulus005.wav	one	5	681	5	5
201	82	sheremony	step7	ceremony	Continuua/ceremony_sheremony/stimulus007.wav	one	1	1298	5	7
201	83	shafari	step4	safari	Continuua/safari_shafari/stimulus004.wav	one	5	755	5	4
201	84	foshil	step10	fossil	Continuua/fossil_foshil/stimulus010.wav	one	1	1022	5	10
201	85	cashtle	step9	castle	Continuua/castle_cashle/stimulus009.wav	one	1	1037	5	9
201	86	shocket	step10	socket	Continuua/socket_shocket/stimulus010.wav	one	1	1027	5	10
201	87	dinoshaur	step3	dinosaur	Continuua/dinosaur_dinoshaur/stimulus003.wav	one	5	898	5	3
201	88	shidewalk	step1	sidewalk	Continuua/sidewalk_shidewalk/stimulus001.wav	one	5	765	5	1
201	89	shailboat	step4	sailboat	Continuua/sailboat_shailboat/stimulus004.wav	one	5	891	5	4
201	90	medishine	step11	medicine	Continuua/medicine_medishine/stimulus011.wav	one	1	874	5	11
201	91	galakshy	step1	galaxy	Continuua/galaxy_galakshy/stimulus001.wav	one	5	755	5	1
201	92	shement	step6	cement	Continuua/cement_shement/stimulus006.wav	one	5	903	5	6
201	93	penshil	step9	pencil	Continuua/pencil_penshil/stimulus009.wav	one	1	1716	5	9
201	94	sheremony	step11	ceremony	Continuua/ceremony_sheremony/stimulus011.wav	one	1	1157	5	11
201	95	shyrup	step11	syrup	Continuua/syrup_shyrup/stimulus011.wav	one	1	967	5	11
201	96	conshert	step9	concert	Continuua/concert_conshert/stimulus009.wav	one	1	658	5	9
201	97	whishtle	step1	whistle	Continuua/whistle_whishle/stimulus001.wav	one	5	694	5	1
201	98	currenshy	step4	currency	Continuua/currency_currenshy/stimulus004.wav	one	5	882	5	4
201	99	shaddle	step1	saddle	Continuua/saddle_shaddle/stimulus001.wav	one	5	1064	5	1
201	100	shyrup	step3	syrup	Continuua/syrup_shyrup/stimulus003.wav	one	5	862	5	3
201	101	shement	step9	cement	Continuua/cement_shement/stimulus009.wav	one	1	1008	5	9
201	102	takshi	step5	taxi	Continuua/taxi_takshi/stimulus005.wav	one	5	901	5	5
201	103	shurfboard	step3	surfboard	Continuua/surfboard_shurfboard/stimulus003.wav	one	5	945	5	3
201	104	mishile	step7	missile	Continuua/missile_mishile/stimulus007.wav	one	5	1171	5	7
201	105	curshor	step11	cursor	Continuua/cursor_curshor/stimulus011.wav	one	1	1010	5	11
201	106	shidewalk	step4	sidewalk	Continuua/sidewalk_shidewalk/stimulus004.wav	one	5	965	5	4
201	107	shurfboard	step11	surfboard	Continuua/surfboard_shurfboard/stimulus011.wav	one	1	1137	5	11
201	108	cashtle	step2	castle	Continuua/castle_cashle/stimulus002.wav	one	5	709	5	2
201	109	shofa	step11	sofa	Continuua/sofa_shofa/stimulus011.wav	one	1	1067	5	11
201	110	mishile	step4	missile	Continuua/missile_mishile/stimulus004.wav	one	5	689	5	4
201	111	shilver	step3	silver	Continuua/silver_shilver/stimulus003.wav	one	5	740	5	3
201	112	shector	step2	sector	Continuua/sector_shector/stimulus002.wav	one	5	829	5	2
201	113	shector	step7	sector	Continuua/sector_shector/stimulus007.wav	one	1	1031	5	7
201	114	shubmarine	step3	submarine	Continuua/submarine_shubmarine/stimulus003.wav	one	5	894	5	3
201	115	shofa	step9	sofa	Continuua/sofa_shofa/stimulus009.wav	one	1	1100	5	9
201	116	penshil	step5	pencil	Continuua/pencil_penshil/stimulus005.wav	one	5	666	5	5
201	117	croishant	step3	croissant	Continuua/croissant_croishant/stimulus003.wav	one	5	745	5	3
201	118	currenshy	step2	currency	Continuua/currency_currenshy/stimulus002.wav	one	5	697	5	2
201	119	croishant	step10	croissant	Continuua/croissant_croishant/stimulus010.wav	one	5	1692	5	10
201	120	croishant	step4	croissant	Continuua/croissant_croishant/stimulus004.wav	one	5	783	5	4
201	121	sheiling	step4	ceiling	Continuua/ceiling_sheiling/stimulus004.wav	one	5	867	5	4
201	122	shelery	step4	celery	Continuua/celery_shelery/stimulus004.wav	one	5	843	5	4
201	123	mishile	step2	missile	Continuua/missile_mishile/stimulus002.wav	one	5	705	5	2
201	124	cashtle	step11	castle	Continuua/castle_cashle/stimulus011.wav	one	1	1593	5	11
201	125	shilver	step8	silver	Continuua/silver_shilver/stimulus008.wav	one	1	1199	5	8
201	126	shurfboard	step5	surfboard	Continuua/surfboard_shurfboard/stimulus005.wav	one	5	773	5	5
201	127	shector	step8	sector	Continuua/sector_shector/stimulus008.wav	one	1	1143	5	8
201	128	tashel	step2	tassel	Continuua/tassel_tashel/stimulus002.wav	one	5	634	5	2
201	129	whishtle	step11	whistle	Continuua/whistle_whishle/stimulus011.wav	one	1	1202	5	11
201	130	shyrup	step4	syrup	Continuua/syrup_shyrup/stimulus004.wav	one	5	837	5	4
201	131	shocket	step3	socket	Continuua/socket_shocket/stimulus003.wav	one	5	771	5	3
201	132	shelery	step11	celery	Continuua/celery_shelery/stimulus011.wav	one	1	2003	5	11
201	133	shofa	step5	sofa	Continuua/sofa_shofa/stimulus005.wav	one	5	982	5	5
201	134	curtshy	step10	curtsy	Continuua/curtsy_curtshy/stimulus010.wav	one	1	1075	5	10
201	135	medishine	step3	medicine	Continuua/medicine_medishine/stimulus003.wav	one	5	736	5	3
201	136	whishtle	step4	whistle	Continuua/whistle_whishle/stimulus004.wav	one	5	662	5	4
201	137	galakshy	step11	galaxy	Continuua/galaxy_galakshy/stimulus011.wav	one	5	1227	5	11
201	138	sheremony	step8	ceremony	Continuua/ceremony_sheremony/stimulus008.wav	one	5	1103	5	8
201	139	croishant	step2	croissant	Continuua/croissant_croishant/stimulus002.wav	one	5	620	5	2
201	140	shatellite	step8	satellite	Continuua/satellite_shatellite/stimulus008.wav	one	1	1994	5	8
201	141	penshil	step6	pencil	Continuua/pencil_penshil/stimulus006.wav	one	5	672	5	6
201	142	shafari	step10	safari	Continuua/safari_shafari/stimulus010.wav	one	1	1560	5	10
201	143	dinoshaur	step4	dinosaur	Continuua/dinosaur_dinoshaur/stimulus004.wav	one	5	962	5	4
201	144	caroushel	step3	carousel	Continuua/carousel_caroushel/stimulus003.wav	one	5	856	5	3
201	145	shelery	step9	celery	Continuua/celery_shelery/stimulus009.wav	one	1	915	5	9
201	146	dansher	step4	dancer	Continuua/dancer_dansher/stimulus004.wav	one	5	710	5	4
201	147	dinoshaur	step9	dinosaur	Continuua/dinosaur_dinoshaur/stimulus009.wav	one	5	1145	5	9
201	148	galakshy	step8	galaxy	Continuua/galaxy_galakshy/stimulus008.wav	one	5	757	5	8
201	149	sheminar	step5	seminar	Continuua/seminar_sheminar/stimulus005.wav	one	5	916	5	5
201	150	shaddle	step2	saddle	Continuua/saddle_shaddle/stimulus002.wav	one	5	735	5	2
201	151	shettlement	step7	settlement	Continuua/settlement_shettlement/stimulus007.wav	one	1	1089	5	7
201	152	cashtle	step1	castle	Continuua/castle_cashle/stimulus001.wav	one	5	622	5	1
201	153	shatellite	step1	satellite	Continuua/satellite_shatellite/stimulus001.wav	one	5	824	5	1
201	154	shafari	step8	safari	Continuua/safari_shafari/stimulus008.wav	one	1	903	5	8
201	155	whishtle	step9	whistle	Continuua/whistle_whishle/stimulus009.wav	one	1	858	5	9
201	156	shettlement	step8	settlement	Continuua/settlement_shettlement/stimulus008.wav	one	1	1074	5	8
201	157	dansher	step8	dancer	Continuua/dancer_dansher/stimulus008.wav	one	5	977	5	8
201	158	penshil	step7	pencil	Continuua/pencil_penshil/stimulus007.wav	one	5	734	5	7
201	159	currenshy	step7	currency	Continuua/currency_currenshy/stimulus007.wav	one	5	1397	5	7
201	160	shector	step11	sector	Continuua/sector_shector/stimulus011.wav	one	1	982	5	11
201	161	shilver	step6	silver	Continuua/silver_shilver/stimulus006.wav	one	5	779	5	6
201	162	shettlement	step2	settlement	Continuua/settlement_shettlement/stimulus002.wav	one	5	943	5	2
201	163	shatellite	step4	satellite	Continuua/satellite_shatellite/stimulus004.wav	one	5	670	5	4
201	164	monshoon	step3	monsoon	Continuua/monsoon_monshoon/stimulus003.wav	one	5	661	5	3
201	165	caroushel	step2	carousel	Continuua/carousel_caroushel/stimulus002.wav	one	5	854	5	2
201	166	shubmarine	step6	submarine	Continuua/submarine_shubmarine/stimulus006.wav	one	5	934	5	6
201	167	medishine	step8	medicine	Continuua/medicine_medishine/stimulus008.wav	one	1	1077	5	8
201	168	caroushel	step11	carousel	Continuua/carousel_caroushel/stimulus011.wav	one	1	1915	5	11
201	169	sheminar	step3	seminar	Continuua/seminar_sheminar/stimulus003.wav	one	5	871	5	3
201	170	shailboat	step6	sailboat	Continuua/sailboat_shailboat/stimulus006.wav	one	5	1048	5	6
201	171	shocket	step4	socket	Continuua/socket_shocket/stimulus004.wav	one	5	860	5	4
201	172	monshoon	step10	monsoon	Continuua/monsoon_monshoon/stimulus010.wav	one	1	970	5	10
201	173	shafari	step3	safari	Continuua/safari_shafari/stimulus003.wav	one	5	758	5	3
201	174	monshoon	step5	monsoon	Continuua/monsoon_monshoon/stimulus005.wav	one	5	668	5	5
201	175	monshoon	step7	monsoon	Continuua/monsoon_monshoon/stimulus007.wav	one	5	502	5	7
201	176	currenshy	step6	currency	Continuua/currency_currenshy/stimulus006.wav	one	5	1110	5	6
201	177	shector	step1	sector	Continuua/sector_shector/stimulus001.wav	one	5	756	5	1
201	178	sheremony	step9	ceremony	Continuua/ceremony_sheremony/stimulus009.wav	one	1	896	5	9
201	179	faushet	step4	faucet	Continuua/faucet_faushet/stimulus004.wav	one	5	723	5	4
201	180	curtshy	step11	curtsy	Continuua/curtsy_curtshy/stimulus011.wav	one	1	1490	5	11
201	181	shement	step1	cement	Continuua/cement_shement/stimulus001.wav	one	5	941	5	1
201	182	whishtle	step5	whistle	Continuua/whistle_whishle/stimulus005.wav	one	5	963	5	5
201	183	tashel	step6	tassel	Continuua/tassel_tashel/stimulus006.wav	one	5	915	5	6
201	184	sheremony	step5	ceremony	Continuua/ceremony_sheremony/stimulus005.wav	one	5	700	5	5
201	185	shocket	step5	socket	Continuua/socket_shocket/stimulus005.wav	one	5	720	5	5
201	186	shatellite	step9	satellite	Continuua/satellite_shatellite/stimulus009.wav	one	1	973	5	9
201	187	shubmarine	step11	submarine	Continuua/submarine_shubmarine/stimulus011.wav	one	1	1325	5	11
201	188	shurfboard	step9	surfboard	Continuua/surfboard_shurfboard/stimulus009.wav	one	5	898	5	9
201	189	shidewalk	step2	sidewalk	Continuua/sidewalk_shidewalk/stimulus002.wav	one	5	670	5	2
201	190	sheminar	step1	seminar	Continuua/seminar_sheminar/stimulus001.wav	one	5	806	5	1
201	191	medishine	step5	medicine	Continuua/medicine_medishine/stimulus005.wav	one	5	592	5	5
201	192	dansher	step6	dancer	Continuua/dancer_dansher/stimulus006.wav	one	5	602	5	6
201	193	curtshy	step5	curtsy	Continuua/curtsy_curtshy/stimulus005.wav	one	5	828	5	5
201	194	shubmarine	step7	submarine	Continuua/submarine_shubmarine/stimulus007.wav	one	5	1737	5	7
201	195	shailboat	step1	sailboat	Continuua/sailboat_shailboat/stimulus001.wav	one	5	969	5	1
201	196	foshil	step6	fossil	Continuua/fossil_foshil/stimulus006.wav	one	5	934	5	6
201	197	shyrup	step9	syrup	Continuua/syrup_shyrup/stimulus009.wav	one	1	1324	5	9
201	198	conshert	step2	concert	Continuua/concert_conshert/stimulus002.wav	one	5	709	5	2
201	199	shyrup	step2	syrup	Continuua/syrup_shyrup/stimulus002.wav	one	5	897	5	2
201	200	currenshy	step11	currency	Continuua/currency_currenshy/stimulus011.wav	one	1	1306	5	11
201	201	curtshy	step1	curtsy	Continuua/curtsy_curtshy/stimulus001.wav	one	5	1338	5	1
201	202	faushet	step2	faucet	Continuua/faucet_faushet/stimulus002.wav	one	5	753	5	2
201	203	shyrup	step1	syrup	Continuua/syrup_shyrup/stimulus001.wav	one	5	757	5	1
201	204	shettlement	step5	settlement	Continuua/settlement_shettlement/stimulus005.wav	one	5	1099	5	5
201	205	whishtle	step8	whistle	Continuua/whistle_whishle/stimulus008.wav	one	1	1222	5	8
201	206	foshil	step2	fossil	Continuua/fossil_foshil/stimulus002.wav	one	5	1003	5	2
201	207	currenshy	step8	currency	Continuua/currency_currenshy/stimulus008.wav	one	1	1147	5	8
201	208	shofa	step1	sofa	Continuua/sofa_shofa/stimulus001.wav	one	5	922	5	1
201	209	mishile	step9	missile	Continuua/missile_mishile/stimulus009.wav	one	1	917	5	9
201	210	shofa	step7	sofa	Continuua/sofa_shofa/stimulus007.wav	one	1	1073	5	7
201	211	caroushel	step9	carousel	Continuua/carousel_caroushel/stimulus009.wav	one	1	914	5	9
201	212	croishant	step6	croissant	Continuua/croissant_croishant/stimulus006.wav	one	5	1147	5	6
201	213	shatellite	step2	satellite	Continuua/satellite_shatellite/stimulus002.wav	one	5	976	5	2
201	214	sheiling	step10	ceiling	Continuua/ceiling_sheiling/stimulus010.wav	one	5	1285	5	10
201	215	shaddle	step11	saddle	Continuua/saddle_shaddle/stimulus011.wav	one	1	1773	5	11
201	216	sheminar	step9	seminar	Continuua/seminar_sheminar/stimulus009.wav	one	1	924	5	9
201	217	curshor	step3	cursor	Continuua/cursor_curshor/stimulus003.wav	one	5	826	5	3
201	218	shilver	step7	silver	Continuua/silver_shilver/stimulus007.wav	one	1	3162	5	7
201	219	curtshy	step9	curtsy	Continuua/curtsy_curtshy/stimulus009.wav	one	1	927	5	9
201	220	tashel	step7	tassel	Continuua/tassel_tashel/stimulus007.wav	one	5	728	5	7
201	221	shailboat	step8	sailboat	Continuua/sailboat_shailboat/stimulus008.wav	one	5	1047	5	8
201	222	galakshy	step5	galaxy	Continuua/galaxy_galakshy/stimulus005.wav	one	5	802	5	5
201	223	shidewalk	step8	sidewalk	Continuua/sidewalk_shidewalk/stimulus008.wav	one	1	969	5	8
201	224	shurfboard	step10	surfboard	Continuua/surfboard_shurfboard/stimulus010.wav	one	5	1086	5	10
201	225	conshert	step5	concert	Continuua/concert_conshert/stimulus005.wav	one	5	1975	5	5
201	226	pharmashy	step6	pharmacy	Continuua/pharmacy_pharmashy/stimulus006.wav	one	5	1341	5	6
201	227	croishant	step1	croissant	Continuua/croissant_croishant/stimulus001.wav	one	5	892	5	1
201	228	shunroof	step10	sunroof	Continuua/sunroof_shunroof/stimulus010.wav	one	5	2259	5	10
201	229	mishile	step10	missile	Continuua/missile_mishile/stimulus010.wav	one	5	1243	5	10
201	230	pharmashy	step10	pharmacy	Continuua/pharmacy_pharmashy/stimulus010.wav	one	1	1357	5	10
201	231	shubmarine	step5	submarine	Continuua/submarine_shubmarine/stimulus005.wav	one	5	1053	5	5
201	232	monshoon	step2	monsoon	Continuua/monsoon_monshoon/stimulus002.wav	one	5	1175	5	2
201	233	shurfboard	step8	surfboard	Continuua/surfboard_shurfboard/stimulus008.wav	one	5	2578	5	8
201	234	tashel	step11	tassel	Continuua/tassel_tashel/stimulus011.wav	one	1	1377	5	11
201	235	shatellite	step5	satellite	Continuua/satellite_shatellite/stimulus005.wav	one	5	1453	5	5
201	236	shettlement	step6	settlement	Continuua/settlement_shettlement/stimulus006.wav	one	5	934	5	6
201	237	caroushel	step10	carousel	Continuua/carousel_caroushel/stimulus010.wav	one	1	1419	5	10
201	238	monshoon	step6	monsoon	Continuua/monsoon_monshoon/stimulus006.wav	one	5	1266	5	6
201	239	pharmashy	step7	pharmacy	Continuua/pharmacy_pharmashy/stimulus007.wav	one	5	1105	5	7
201	240	shement	step5	cement	Continuua/cement_shement/stimulus005.wav	one	5	893	5	5
201	241	curtshy	step7	curtsy	Continuua/curtsy_curtshy/stimulus007.wav	one	5	954	5	7
201	242	caroushel	step8	carousel	Continuua/carousel_caroushel/stimulus008.wav	one	1	958	5	8
201	243	sheminar	step2	seminar	Continuua/seminar_sheminar/stimulus002.wav	one	5	949	5	2
201	244	curshor	step9	cursor	Continuua/cursor_curshor/stimulus009.wav	one	1	849	5	9
201	245	shafari	step5	safari	Continuua/safari_shafari/stimulus005.wav	one	5	1186	5	5
201	246	shailboat	step2	sailboat	Continuua/sailboat_shailboat/stimulus002.wav	one	5	932	5	2
201	247	shelery	step2	celery	Continuua/celery_shelery/stimulus002.wav	one	5	1039	5	2
201	248	shaddle	step3	saddle	Continuua/saddle_shaddle/stimulus003.wav	one	5	1307	5	3
201	249	conshert	step10	concert	Continuua/concert_conshert/stimulus010.wav	one	1	920	5	10
201	250	shaddle	step10	saddle	Continuua/saddle_shaddle/stimulus010.wav	one	1	1655	5	10
201	251	monshoon	step11	monsoon	Continuua/monsoon_monshoon/stimulus011.wav	one	1	763	5	11
201	252	shelery	step6	celery	Continuua/celery_shelery/stimulus006.wav	one	5	1324	5	6
201	253	mishile	step1	missile	Continuua/missile_mishile/stimulus001.wav	one	5	1723	5	1
201	254	dinoshaur	step6	dinosaur	Continuua/dinosaur_dinoshaur/stimulus006.wav	one	5	1161	5	6
201	255	takshi	step11	taxi	Continuua/taxi_takshi/stimulus011.wav	one	1	1487	5	11
201	256	dansher	step2	dancer	Continuua/dancer_dansher/stimulus002.wav	one	5	732	5	2
201	257	dansher	step10	dancer	Continuua/dancer_dansher/stimulus010.wav	one	5	593	5	10
201	258	shubmarine	step10	submarine	Continuua/submarine_shubmarine/stimulus010.wav	one	5	1584	5	10
201	259	currenshy	step9	currency	Continuua/currency_currenshy/stimulus009.wav	one	5	3563	5	9
201	260	shaddle	step7	saddle	Continuua/saddle_shaddle/stimulus007.wav	one	5	1928	5	7
201	261	caroushel	step5	carousel	Continuua/carousel_caroushel/stimulus005.wav	one	5	1033	5	5
201	262	takshi	step2	taxi	Continuua/taxi_takshi/stimulus002.wav	one	5	585	5	2
201	263	takshi	step3	taxi	Continuua/taxi_takshi/stimulus003.wav	one	5	480	5	3
201	264	conshert	step8	concert	Continuua/concert_conshert/stimulus008.wav	one	5	996	5	8
201	265	sheremony	step3	ceremony	Continuua/ceremony_sheremony/stimulus003.wav	one	5	880	5	3
201	266	medishine	step7	medicine	Continuua/medicine_medishine/stimulus007.wav	one	1	1166	5	7
201	267	sheiling	step1	ceiling	Continuua/ceiling_sheiling/stimulus001.wav	one	5	911	5	1
201	268	curshor	step1	cursor	Continuua/cursor_curshor/stimulus001.wav	one	5	815	5	1
201	269	faushet	step10	faucet	Continuua/faucet_faushet/stimulus010.wav	one	1	1257	5	10
201	270	faushet	step5	faucet	Continuua/faucet_faushet/stimulus005.wav	one	5	1027	5	5
201	271	dinoshaur	step10	dinosaur	Continuua/dinosaur_dinoshaur/stimulus010.wav	one	1	1138	5	10
201	272	sheiling	step2	ceiling	Continuua/ceiling_sheiling/stimulus002.wav	one	5	1089	5	2
201	273	whishtle	step10	whistle	Continuua/whistle_whishle/stimulus010.wav	one	1	1548	5	10
201	274	shunroof	step2	sunroof	Continuua/sunroof_shunroof/stimulus002.wav	one	1	1276	5	2
201	275	shidewalk	step11	sidewalk	Continuua/sidewalk_shidewalk/stimulus011.wav	one	1	1045	5	11
201	276	dansher	step7	dancer	Continuua/dancer_dansher/stimulus007.wav	one	5	838	5	7
201	277	sheminar	step11	seminar	Continuua/seminar_sheminar/stimulus011.wav	one	5	1215	5	11
201	278	shidewalk	step6	sidewalk	Continuua/sidewalk_shidewalk/stimulus006.wav	one	1	697	5	6
201	279	sheremony	step6	ceremony	Continuua/ceremony_sheremony/stimulus006.wav	one	1	872	5	6
201	280	shofa	step2	sofa	Continuua/sofa_shofa/stimulus002.wav	one	5	895	5	2
201	281	shocket	step8	socket	Continuua/socket_shocket/stimulus008.wav	one	1	1704	5	8
201	282	shubmarine	step9	submarine	Continuua/submarine_shubmarine/stimulus009.wav	one	5	1241	5	9
201	283	shector	step6	sector	Continuua/sector_shector/stimulus006.wav	one	5	2241	5	6
201	284	foshil	step11	fossil	Continuua/fossil_foshil/stimulus011.wav	one	1	1127	5	11
201	285	shettlement	step1	settlement	Continuua/settlement_shettlement/stimulus001.wav	one	5	895	5	1
201	286	currenshy	step3	currency	Continuua/currency_currenshy/stimulus003.wav	one	5	689	5	3
201	287	medishine	step9	medicine	Continuua/medicine_medishine/stimulus009.wav	one	5	741	5	9
201	288	sheremony	step4	ceremony	Continuua/ceremony_sheremony/stimulus004.wav	one	5	783	5	4
201	289	penshil	step4	pencil	Continuua/pencil_penshil/stimulus004.wav	one	5	4693	5	4
201	290	galakshy	step2	galaxy	Continuua/galaxy_galakshy/stimulus002.wav	one	5	980	5	2
201	291	currenshy	step10	currency	Continuua/currency_currenshy/stimulus010.wav	one	1	922	5	10
201	292	conshert	step1	concert	Continuua/concert_conshert/stimulus001.wav	one	5	1063	5	1
201	293	penshil	step8	pencil	Continuua/pencil_penshil/stimulus008.wav	one	1	769	5	8
201	294	takshi	step9	taxi	Continuua/taxi_takshi/stimulus009.wav	one	1	1266	5	9
201	295	shidewalk	step3	sidewalk	Continuua/sidewalk_shidewalk/stimulus003.wav	one	5	711	5	3
201	296	shaddle	step8	saddle	Continuua/saddle_shaddle/stimulus008.wav	one	5	862	5	8
201	297	shement	step8	cement	Continuua/cement_shement/stimulus008.wav	one	5	888	5	8
201	298	dinoshaur	step2	dinosaur	Continuua/dinosaur_dinoshaur/stimulus002.wav	one	5	882	5	2
201	299	pharmashy	step8	pharmacy	Continuua/pharmacy_pharmashy/stimulus008.wav	one	1	1770	5	8
201	300	shocket	step11	socket	Continuua/socket_shocket/stimulus011.wav	one	1	1380	5	11
201	301	shettlement	step10	settlement	Continuua/settlement_shettlement/stimulus010.wav	one	1	1273	5	10
201	302	shaddle	step6	saddle	Continuua/saddle_shaddle/stimulus006.wav	one	1	981	5	6
201	303	currenshy	step1	currency	Continuua/currency_currenshy/stimulus001.wav	one	5	793	5	1
201	304	shyrup	step7	syrup	Continuua/syrup_shyrup/stimulus007.wav	one	1	1099	5	7
201	305	shelery	step10	celery	Continuua/celery_shelery/stimulus010.wav	one	1	756	5	10
201	306	dansher	step9	dancer	Continuua/dancer_dansher/stimulus009.wav	one	1	820	5	9
201	307	shettlement	step11	settlement	Continuua/settlement_shettlement/stimulus011.wav	one	1	659	5	11
201	308	shelery	step5	celery	Continuua/celery_shelery/stimulus005.wav	one	5	841	5	5
201	309	shector	step10	sector	Continuua/sector_shector/stimulus010.wav	one	1	999	5	10
201	310	shunroof	step11	sunroof	Continuua/sunroof_shunroof/stimulus011.wav	one	1	765	5	11
201	311	cashtle	step3	castle	Continuua/castle_cashle/stimulus003.wav	one	5	617	5	3
201	312	penshil	step3	pencil	Continuua/pencil_penshil/stimulus003.wav	one	5	578	5	3
201	313	shocket	step6	socket	Continuua/socket_shocket/stimulus006.wav	one	5	1265	5	6
201	314	pharmashy	step3	pharmacy	Continuua/pharmacy_pharmashy/stimulus003.wav	one	5	1262	5	3
201	315	shofa	step6	sofa	Continuua/sofa_shofa/stimulus006.wav	one	5	889	5	6
201	316	shaddle	step4	saddle	Continuua/saddle_shaddle/stimulus004.wav	one	5	694	5	4
201	317	faushet	step1	faucet	Continuua/faucet_faushet/stimulus001.wav	one	5	727	5	1
201	318	shafari	step6	safari	Continuua/safari_shafari/stimulus006.wav	one	5	925	5	6
201	319	conshert	step3	concert	Continuua/concert_conshert/stimulus003.wav	one	5	640	5	3
201	320	shector	step3	sector	Continuua/sector_shector/stimulus003.wav	one	5	768	5	3
201	321	pharmashy	step9	pharmacy	Continuua/pharmacy_pharmashy/stimulus009.wav	one	5	753	5	9
201	322	shilver	step1	silver	Continuua/silver_shilver/stimulus001.wav	one	5	858	5	1
201	323	faushet	step3	faucet	Continuua/faucet_faushet/stimulus003.wav	one	5	1122	5	3
201	324	shatellite	step10	satellite	Continuua/satellite_shatellite/stimulus010.wav	one	1	1143	5	10
201	325	shubmarine	step2	submarine	Continuua/submarine_shubmarine/stimulus002.wav	one	5	1082	5	2
201	326	takshi	step8	taxi	Continuua/taxi_takshi/stimulus008.wav	one	5	1381	5	8
201	327	shunroof	step7	sunroof	Continuua/sunroof_shunroof/stimulus007.wav	one	5	1551	5	7
201	328	curshor	step2	cursor	Continuua/cursor_curshor/stimulus002.wav	one	5	716	5	2
201	329	sheiling	step3	ceiling	Continuua/ceiling_sheiling/stimulus003.wav	one	5	768	5	3
201	330	currenshy	step5	currency	Continuua/currency_currenshy/stimulus005.wav	one	5	731	5	5
201	331	shocket	step7	socket	Continuua/socket_shocket/stimulus007.wav	one	1	1210	5	7
201	332	sheiling	step6	ceiling	Continuua/ceiling_sheiling/stimulus006.wav	one	5	881	5	6
201	333	cashtle	step10	castle	Continuua/castle_cashle/stimulus010.wav	one	5	898	5	10
201	334	curshor	step6	cursor	Continuua/cursor_curshor/stimulus006.wav	one	5	770	5	6
201	335	shailboat	step3	sailboat	Continuua/sailboat_shailboat/stimulus003.wav	one	5	878	5	3
201	336	caroushel	step6	carousel	Continuua/carousel_caroushel/stimulus006.wav	one	5	991	5	6
201	337	shement	step4	cement	Continuua/cement_shement/stimulus004.wav	one	5	993	5	4
201	338	croishant	step5	croissant	Continuua/croissant_croishant/stimulus005.wav	one	5	758	5	5
201	339	monshoon	step4	monsoon	Continuua/monsoon_monshoon/stimulus004.wav	one	5	2567	5	4
201	340	shilver	step4	silver	Continuua/silver_shilver/stimulus004.wav	one	5	713	5	4
201	341	cashtle	step6	castle	Continuua/castle_cashle/stimulus006.wav	one	5	635	5	6
201	342	shofa	step8	sofa	Continuua/sofa_shofa/stimulus008.wav	one	0	0	5	8
201	343	shilver	step9	silver	Continuua/silver_shilver/stimulus009.wav	one	1	969	5	9
201	344	caroushel	step1	carousel	Continuua/carousel_caroushel/stimulus001.wav	one	1	2002	5	1
201	345	shector	step4	sector	Continuua/sector_shector/stimulus004.wav	one	5	961	5	4
201	346	sheremony	step2	ceremony	Continuua/ceremony_sheremony/stimulus002.wav	one	5	823	5	2
201	347	shatellite	step6	satellite	Continuua/satellite_shatellite/stimulus006.wav	one	5	1482	5	6
201	348	shidewalk	step5	sidewalk	Continuua/sidewalk_shidewalk/stimulus005.wav	one	5	2419	5	5
201	349	faushet	step7	faucet	Continuua/faucet_faushet/stimulus007.wav	one	5	789	5	7
201	350	dansher	step1	dancer	Continuua/dancer_dansher/stimulus001.wav	one	5	658	5	1
201	351	shector	step9	sector	Continuua/sector_shector/stimulus009.wav	one	1	670	5	9
201	352	penshil	step1	pencil	Continuua/pencil_penshil/stimulus001.wav	one	5	739	5	1
201	353	shelery	step8	celery	Continuua/celery_shelery/stimulus008.wav	one	1	733	5	8
201	354	curtshy	step8	curtsy	Continuua/curtsy_curtshy/stimulus008.wav	one	1	939	5	8
201	355	takshi	step6	taxi	Continuua/taxi_takshi/stimulus006.wav	one	5	866	5	6
201	356	shement	step2	cement	Continuua/cement_shement/stimulus002.wav	one	5	996	5	2
201	357	mishile	step8	missile	Continuua/missile_mishile/stimulus008.wav	one	5	2494	5	8
201	358	foshil	step3	fossil	Continuua/fossil_foshil/stimulus003.wav	one	5	1212	5	3
201	359	shubmarine	step1	submarine	Continuua/submarine_shubmarine/stimulus001.wav	one	5	1034	5	1
201	360	dinoshaur	step1	dinosaur	Continuua/dinosaur_dinoshaur/stimulus001.wav	one	5	929	5	1
201	361	dinoshaur	step11	dinosaur	Continuua/dinosaur_dinoshaur/stimulus011.wav	one	1	933	5	11
201	362	sheminar	step6	seminar	Continuua/seminar_sheminar/stimulus006.wav	one	1	1129	5	6
201	363	curshor	step5	cursor	Continuua/cursor_curshor/stimulus005.wav	one	5	876	5	5
201	364	shettlement	step3	settlement	Continuua/settlement_shettlement/stimulus003.wav	one	5	955	5	3
201	365	shunroof	step8	sunroof	Continuua/sunroof_shunroof/stimulus008.wav	one	1	1152	5	8
201	366	shilver	step5	silver	Continuua/silver_shilver/stimulus005.wav	one	5	783	5	5
201	367	croishant	step8	croissant	Continuua/croissant_croishant/stimulus008.wav	one	5	1163	5	8
201	368	shement	step11	cement	Continuua/cement_shement/stimulus011.wav	one	5	1651	5	11
201	369	shailboat	step11	sailboat	Continuua/sailboat_shailboat/stimulus011.wav	one	5	2286	5	11
201	370	sheiling	step7	ceiling	Continuua/ceiling_sheiling/stimulus007.wav	one	5	848	5	7
201	371	shubmarine	step8	submarine	Continuua/submarine_shubmarine/stimulus008.wav	one	5	854	5	8
201	372	caroushel	step4	carousel	Continuua/carousel_caroushel/stimulus004.wav	one	5	743	5	4
201	373	takshi	step7	taxi	Continuua/taxi_takshi/stimulus007.wav	one	5	559	5	7
201	374	shocket	step1	socket	Continuua/socket_shocket/stimulus001.wav	one	5	735	5	1
201	375	shaddle	step5	saddle	Continuua/saddle_shaddle/stimulus005.wav	one	5	1078	5	5
201	376	tashel	step4	tassel	Continuua/tassel_tashel/stimulus004.wav	one	5	633	5	4
201	377	medishine	step4	medicine	Continuua/medicine_medishine/stimulus004.wav	one	5	774	5	4
201	378	shyrup	step8	syrup	Continuua/syrup_shyrup/stimulus008.wav	one	1	1140	5	8
201	379	shocket	step2	socket	Continuua/socket_shocket/stimulus002.wav	one	5	742	5	2
201	380	monshoon	step8	monsoon	Continuua/monsoon_monshoon/stimulus008.wav	one	1	1335	5	8
201	381	galakshy	step4	galaxy	Continuua/galaxy_galakshy/stimulus004.wav	one	5	1489	5	4
201	382	shailboat	step7	sailboat	Continuua/sailboat_shailboat/stimulus007.wav	one	5	1500	5	7
201	383	mishile	step5	missile	Continuua/missile_mishile/stimulus005.wav	one	5	929	5	5
201	384	sheminar	step10	seminar	Continuua/seminar_sheminar/stimulus010.wav	one	1	1713	5	10
201	385	shailboat	step9	sailboat	Continuua/sailboat_shailboat/stimulus009.wav	one	5	1580	5	9
201	386	tashel	step1	tassel	Continuua/tassel_tashel/stimulus001.wav	one	5	1363	5	1
201	387	shelery	step1	celery	Continuua/celery_shelery/stimulus001.wav	one	5	1021	5	1
201	388	shailboat	step5	sailboat	Continuua/sailboat_shailboat/stimulus005.wav	one	5	1579	5	5
201	389	faushet	step8	faucet	Continuua/faucet_faushet/stimulus008.wav	one	1	1979	5	8
201	390	shailboat	step10	sailboat	Continuua/sailboat_shailboat/stimulus010.wav	one	5	1277	5	10
201	391	croishant	step11	croissant	Continuua/croissant_croishant/stimulus011.wav	one	5	3072	5	11
201	392	whishtle	step6	whistle	Continuua/whistle_whishle/stimulus006.wav	one	1	1140	5	6
201	393	shilver	step2	silver	Continuua/silver_shilver/stimulus002.wav	one	5	1255	5	2
201	394	curshor	step7	cursor	Continuua/cursor_curshor/stimulus007.wav	one	5	1640	5	7
201	395	shatellite	step11	satellite	Continuua/satellite_shatellite/stimulus011.wav	one	1	2593	5	11
201	396	takshi	step4	taxi	Continuua/taxi_takshi/stimulus004.wav	one	5	1370	5	4
201	397	pharmashy	step1	pharmacy	Continuua/pharmacy_pharmashy/stimulus001.wav	one	5	2577	5	1
201	398	tashel	step10	tassel	Continuua/tassel_tashel/stimulus010.wav	one	1	961	5	10
201	399	foshil	step5	fossil	Continuua/fossil_foshil/stimulus005.wav	one	5	1285	5	5
201	400	shubmarine	step4	submarine	Continuua/submarine_shubmarine/stimulus004.wav	one	5	1058	5	4
201	401	croishant	step9	croissant	Continuua/croissant_croishant/stimulus009.wav	one	5	2561	5	9
201	402	shunroof	step9	sunroof	Continuua/sunroof_shunroof/stimulus009.wav	one	1	2058	5	9
201	403	medishine	step6	medicine	Continuua/medicine_medishine/stimulus006.wav	one	5	897	5	6
201	404	conshert	step11	concert	Continuua/concert_conshert/stimulus011.wav	one	1	2139	5	11
201	405	dinoshaur	step5	dinosaur	Continuua/dinosaur_dinoshaur/stimulus005.wav	one	5	2785	5	5
201	406	shement	step10	cement	Continuua/cement_shement/stimulus010.wav	one	5	1191	5	10
201	407	shidewalk	step7	sidewalk	Continuua/sidewalk_shidewalk/stimulus007.wav	one	5	3489	5	7
201	408	medishine	step1	medicine	Continuua/medicine_medishine/stimulus001.wav	one	5	1049	5	1
201	409	shafari	step9	safari	Continuua/safari_shafari/stimulus009.wav	one	5	982	5	9
201	410	shyrup	step10	syrup	Continuua/syrup_shyrup/stimulus010.wav	one	1	981	5	10
201	411	tashel	step9	tassel	Continuua/tassel_tashel/stimulus009.wav	one	1	1452	5	9
201	412	shurfboard	step4	surfboard	Continuua/surfboard_shurfboard/stimulus004.wav	one	5	1093	5	4
201	413	whishtle	step7	whistle	Continuua/whistle_whishle/stimulus007.wav	one	1	808	5	7
201	414	shunroof	step5	sunroof	Continuua/sunroof_shunroof/stimulus005.wav	one	5	1180	5	5
201	415	shettlement	step4	settlement	Continuua/settlement_shettlement/stimulus004.wav	one	5	1395	5	4
201	416	shement	step7	cement	Continuua/cement_shement/stimulus007.wav	one	5	1068	5	7
201	417	mishile	step11	missile	Continuua/missile_mishile/stimulus011.wav	one	5	934	5	11
201	418	pharmashy	step11	pharmacy	Continuua/pharmacy_pharmashy/stimulus011.wav	one	5	1655	5	11
201	419	shafari	step7	safari	Continuua/safari_shafari/stimulus007.wav	one	5	982	5	7
201	420	shafari	step2	safari	Continuua/safari_shafari/stimulus002.wav	one	5	1671	5	2
201	421	curtshy	step6	curtsy	Continuua/curtsy_curtshy/stimulus006.wav	one	1	1305	5	6
201	422	shunroof	step6	sunroof	Continuua/sunroof_shunroof/stimulus006.wav	one	5	2320	5	6
201	423	shunroof	step3	sunroof	Continuua/sunroof_shunroof/stimulus003.wav	one	5	954	5	3
201	424	dinoshaur	step8	dinosaur	Continuua/dinosaur_dinoshaur/stimulus008.wav	one	5	1237	5	8
201	425	sheiling	step11	ceiling	Continuua/ceiling_sheiling/stimulus011.wav	one	1	1107	5	11
201	426	shofa	step10	sofa	Continuua/sofa_shofa/stimulus010.wav	one	5	1945	5	10
201	427	shelery	step7	celery	Continuua/celery_shelery/stimulus007.wav	one	5	2953	5	7
201	428	penshil	step11	pencil	Continuua/pencil_penshil/stimulus011.wav	one	5	989	5	11
201	429	shilver	step11	silver	Continuua/silver_shilver/stimulus011.wav	one	1	1374	5	11
201	1	shy	step3	sigh	Continuua/sigh_shy/stimulus003.wav	both	1	763	1	3
201	2	shin	step1	sin	Continuua/sin_shin/stimulus001.wav	both	1	553	1	1
201	3	shock	step8	sock	Continuua/sock_shock/stimulus008.wav	both	5	684	1	8
201	4	shy	step2	sigh	Continuua/sigh_shy/stimulus002.wav	both	1	534	1	2
201	5	ashi	step11	asi	Continuua/asi_ashi/stimulus011.wav	both	5	813	1	11
201	6	ashi	step5	asi	Continuua/asi_ashi/stimulus005.wav	both	1	616	1	5
201	7	ashi	step9	asi	Continuua/asi_ashi/stimulus009.wav	both	5	1033	1	9
201	8	shack	step8	sack	Continuua/sack_shack/stimulus008.wav	both	5	661	1	8
201	9	shock	step9	sock	Continuua/sock_shock/stimulus009.wav	both	5	607	1	9
201	10	shin	step4	sin	Continuua/sin_shin/stimulus004.wav	both	1	547	1	4
201	11	ashi	step2	asi	Continuua/asi_ashi/stimulus002.wav	both	1	582	1	2
201	12	shy	step5	sigh	Continuua/sigh_shy/stimulus005.wav	both	1	608	1	5
201	13	shack	step7	sack	Continuua/sack_shack/stimulus007.wav	both	5	614	1	7
201	14	shock	step6	sock	Continuua/sock_shock/stimulus006.wav	both	1	1206	1	6
201	15	shock	step3	sock	Continuua/sock_shock/stimulus003.wav	both	1	586	1	3
201	16	shock	step4	sock	Continuua/sock_shock/stimulus004.wav	both	1	483	1	4
201	17	shin	step11	sin	Continuua/sin_shin/stimulus011.wav	both	5	533	1	11
201	18	shin	step8	sin	Continuua/sin_shin/stimulus008.wav	both	5	503	1	8
201	19	shack	step6	sack	Continuua/sack_shack/stimulus006.wav	both	5	729	1	6
201	20	ashi	step4	asi	Continuua/asi_ashi/stimulus004.wav	both	1	597	1	4
201	21	shack	step5	sack	Continuua/sack_shack/stimulus005.wav	both	1	577	1	5
201	22	shock	step10	sock	Continuua/sock_shock/stimulus010.wav	both	5	611	1	10
201	23	shack	step9	sack	Continuua/sack_shack/stimulus009.wav	both	5	716	1	9
201	24	ashi	step10	asi	Continuua/asi_ashi/stimulus010.wav	both	5	703	1	10
201	25	shin	step7	sin	Continuua/sin_shin/stimulus007.wav	both	5	911	1	7
201	26	shy	step9	sigh	Continuua/sigh_shy/stimulus009.wav	both	5	887	1	9
201	27	shack	step2	sack	Continuua/sack_shack/stimulus002.wav	both	1	910	1	2
201	28	shack	step1	sack	Continuua/sack_shack/stimulus001.wav	both	1	1418	1	1
201	29	shock	step7	sock	Continuua/sock_shock/stimulus007.wav	both	5	1201	1	7
201	30	ashi	step6	asi	Continuua/asi_ashi/stimulus006.wav	both	1	1128	1	6
201	31	shy	step11	sigh	Continuua/sigh_shy/stimulus011.wav	both	5	1471	1	11
201	32	shock	step5	sock	Continuua/sock_shock/stimulus005.wav	both	1	659	1	5
201	33	shy	step10	sigh	Continuua/sigh_shy/stimulus010.wav	both	5	1197	1	10
201	34	shack	step10	sack	Continuua/sack_shack/stimulus010.wav	both	5	575	1	10
201	35	shin	step3	sin	Continuua/sin_shin/stimulus003.wav	both	1	676	1	3
201	36	shack	step11	sack	Continuua/sack_shack/stimulus011.wav	both	5	823	1	11
201	37	shy	step1	sigh	Continuua/sigh_shy/stimulus001.wav	both	1	614	1	1
201	38	shin	step5	sin	Continuua/sin_shin/stimulus005.wav	both	1	1266	1	5
201	39	shy	step8	sigh	Continuua/sigh_shy/stimulus008.wav	both	5	925	1	8
201	40	ashi	step3	asi	Continuua/asi_ashi/stimulus003.wav	both	1	982	1	3
201	41	shack	step3	sack	Continuua/sack_shack/stimulus003.wav	both	1	1301	1	3
201	42	shy	step4	sigh	Continuua/sigh_shy/stimulus004.wav	both	1	1505	1	4
201	43	ashi	step7	asi	Continuua/asi_ashi/stimulus007.wav	both	5	1049	1	7
201	44	shin	step2	sin	Continuua/sin_shin/stimulus002.wav	both	1	843	1	2
201	45	ashi	step8	asi	Continuua/asi_ashi/stimulus008.wav	both	5	1711	1	8
201	46	shack	step4	sack	Continuua/sack_shack/stimulus004.wav	both	1	861	1	4
201	47	shock	step1	sock	Continuua/sock_shock/stimulus001.wav	both	1	1803	1	1
201	48	shin	step6	sin	Continuua/sin_shin/stimulus006.wav	both	1	2971	1	6
201	49	shock	step2	sock	Continuua/sock_shock/stimulus002.wav	both	1	1584	1	2
201	50	shin	step10	sin	Continuua/sin_shin/stimulus010.wav	both	5	866	1	10
201	51	ashi	step1	asi	Continuua/asi_ashi/stimulus001.wav	both	1	1606	1	1
201	52	shin	step9	sin	Continuua/sin_shin/stimulus009.wav	both	5	1069	1	9
201	53	shy	step7	sigh	Continuua/sigh_shy/stimulus007.wav	both	5	2356	1	7
201	54	shock	step11	sock	Continuua/sock_shock/stimulus011.wav	both	5	1259	1	11
201	55	shy	step6	sigh	Continuua/sigh_shy/stimulus006.wav	both	5	3798	1	6
202	1	mishile	step10	missile	Continuua/missile_mishile/stimulus010.wav	one	1	3751	5	10
202	2	shement	step4	cement	Continuua/cement_shement/stimulus004.wav	one	5	1377	5	4
202	3	dinoshaur	step4	dinosaur	Continuua/dinosaur_dinoshaur/stimulus004.wav	one	5	1372	5	4
202	4	shidewalk	step7	sidewalk	Continuua/sidewalk_shidewalk/stimulus007.wav	one	5	2456	5	7
202	5	shettlement	step4	settlement	Continuua/settlement_shettlement/stimulus004.wav	one	5	2003	5	4
202	6	shurfboard	step4	surfboard	Continuua/surfboard_shurfboard/stimulus004.wav	one	5	1334	5	4
202	7	shelery	step2	celery	Continuua/celery_shelery/stimulus002.wav	one	5	931	5	2
202	8	shailboat	step8	sailboat	Continuua/sailboat_shailboat/stimulus008.wav	one	5	2464	5	8
202	9	shubmarine	step11	submarine	Continuua/submarine_shubmarine/stimulus011.wav	one	5	2411	5	11
202	10	curshor	step2	cursor	Continuua/cursor_curshor/stimulus002.wav	one	5	1271	5	2
202	11	dansher	step5	dancer	Continuua/dancer_dansher/stimulus005.wav	one	5	1021	5	5
202	12	tashel	step10	tassel	Continuua/tassel_tashel/stimulus010.wav	one	1	1349	5	10
202	13	faushet	step5	faucet	Continuua/faucet_faushet/stimulus005.wav	one	5	1078	5	5
202	14	shyrup	step5	syrup	Continuua/syrup_shyrup/stimulus005.wav	one	5	1758	5	5
202	15	sheiling	step1	ceiling	Continuua/ceiling_sheiling/stimulus001.wav	one	5	1030	5	1
202	16	croishant	step11	croissant	Continuua/croissant_croishant/stimulus011.wav	one	1	2829	5	11
202	17	shunroof	step8	sunroof	Continuua/sunroof_shunroof/stimulus008.wav	one	5	1954	5	8
202	18	shilver	step10	silver	Continuua/silver_shilver/stimulus010.wav	one	5	4229	5	10
202	19	shatellite	step3	satellite	Continuua/satellite_shatellite/stimulus003.wav	one	5	1051	5	3
202	20	monshoon	step7	monsoon	Continuua/monsoon_monshoon/stimulus007.wav	one	1	1381	5	7
202	21	shector	step8	sector	Continuua/sector_shector/stimulus008.wav	one	1	1564	5	8
202	22	shement	step5	cement	Continuua/cement_shement/stimulus005.wav	one	5	1275	5	5
202	23	galakshy	step5	galaxy	Continuua/galaxy_galakshy/stimulus005.wav	one	5	927	5	5
202	24	galakshy	step9	galaxy	Continuua/galaxy_galakshy/stimulus009.wav	one	5	1556	5	9
202	25	currenshy	step8	currency	Continuua/currency_currenshy/stimulus008.wav	one	5	1190	5	8
202	26	shelery	step4	celery	Continuua/celery_shelery/stimulus004.wav	one	5	1094	5	4
202	27	sheiling	step8	ceiling	Continuua/ceiling_sheiling/stimulus008.wav	one	5	1951	5	8
202	28	foshil	step2	fossil	Continuua/fossil_foshil/stimulus002.wav	one	5	1324	5	2
202	29	shunroof	step4	sunroof	Continuua/sunroof_shunroof/stimulus004.wav	one	5	1149	5	4
202	30	shelery	step3	celery	Continuua/celery_shelery/stimulus003.wav	one	5	1596	5	3
202	31	shailboat	step3	sailboat	Continuua/sailboat_shailboat/stimulus003.wav	one	5	1477	5	3
202	32	pharmashy	step11	pharmacy	Continuua/pharmacy_pharmashy/stimulus011.wav	one	5	1555	5	11
202	33	whishtle	step8	whistle	Continuua/whistle_whishle/stimulus008.wav	one	5	1291	5	8
202	34	curshor	step4	cursor	Continuua/cursor_curshor/stimulus004.wav	one	5	1013	5	4
202	35	monshoon	step10	monsoon	Continuua/monsoon_monshoon/stimulus010.wav	one	1	2302	5	10
202	36	sheremony	step10	ceremony	Continuua/ceremony_sheremony/stimulus010.wav	one	1	2017	5	10
202	37	sheiling	step2	ceiling	Continuua/ceiling_sheiling/stimulus002.wav	one	5	894	5	2
202	38	shelery	step9	celery	Continuua/celery_shelery/stimulus009.wav	one	5	3155	5	9
202	39	mishile	step4	missile	Continuua/missile_mishile/stimulus004.wav	one	5	2244	5	4
202	40	shyrup	step8	syrup	Continuua/syrup_shyrup/stimulus008.wav	one	1	2179	5	8
202	41	shurfboard	step5	surfboard	Continuua/surfboard_shurfboard/stimulus005.wav	one	5	1044	5	5
202	42	curshor	step5	cursor	Continuua/cursor_curshor/stimulus005.wav	one	5	709	5	5
202	43	curtshy	step10	curtsy	Continuua/curtsy_curtshy/stimulus010.wav	one	1	1259	5	10
202	44	shector	step11	sector	Continuua/sector_shector/stimulus011.wav	one	1	1667	5	11
202	45	shocket	step2	socket	Continuua/socket_shocket/stimulus002.wav	one	5	1904	5	2
202	46	shector	step4	sector	Continuua/sector_shector/stimulus004.wav	one	5	1113	5	4
202	47	cashtle	step11	castle	Continuua/castle_cashle/stimulus011.wav	one	1	1409	5	11
202	48	dinoshaur	step8	dinosaur	Continuua/dinosaur_dinoshaur/stimulus008.wav	one	5	1345	5	8
202	49	galakshy	step4	galaxy	Continuua/galaxy_galakshy/stimulus004.wav	one	5	1006	5	4
202	50	shilver	step3	silver	Continuua/silver_shilver/stimulus003.wav	one	5	930	5	3
202	51	penshil	step3	pencil	Continuua/pencil_penshil/stimulus003.wav	one	5	775	5	3
202	52	shatellite	step11	satellite	Continuua/satellite_shatellite/stimulus011.wav	one	5	1996	5	11
202	53	shocket	step8	socket	Continuua/socket_shocket/stimulus008.wav	one	1	1671	5	8
202	54	sheminar	step9	seminar	Continuua/seminar_sheminar/stimulus009.wav	one	1	2992	5	9
202	55	shafari	step3	safari	Continuua/safari_shafari/stimulus003.wav	one	5	1143	5	3
202	56	croishant	step4	croissant	Continuua/croissant_croishant/stimulus004.wav	one	5	988	5	4
202	57	pharmashy	step7	pharmacy	Continuua/pharmacy_pharmashy/stimulus007.wav	one	5	1588	5	7
202	58	takshi	step10	taxi	Continuua/taxi_takshi/stimulus010.wav	one	5	1402	5	10
202	59	foshil	step1	fossil	Continuua/fossil_foshil/stimulus001.wav	one	5	971	5	1
202	60	conshert	step8	concert	Continuua/concert_conshert/stimulus008.wav	one	5	1011	5	8
202	61	shilver	step11	silver	Continuua/silver_shilver/stimulus011.wav	one	5	1420	5	11
202	62	shocket	step4	socket	Continuua/socket_shocket/stimulus004.wav	one	5	967	5	4
202	63	cashtle	step2	castle	Continuua/castle_cashle/stimulus002.wav	one	5	1270	5	2
202	64	shelery	step8	celery	Continuua/celery_shelery/stimulus008.wav	one	5	1569	5	8
202	65	cashtle	step8	castle	Continuua/castle_cashle/stimulus008.wav	one	5	832	5	8
202	66	caroushel	step4	carousel	Continuua/carousel_caroushel/stimulus004.wav	one	5	1153	5	4
202	67	pharmashy	step2	pharmacy	Continuua/pharmacy_pharmashy/stimulus002.wav	one	5	1077	5	2
202	68	tashel	step8	tassel	Continuua/tassel_tashel/stimulus008.wav	one	1	1430	5	8
202	69	faushet	step3	faucet	Continuua/faucet_faushet/stimulus003.wav	one	5	1509	5	3
202	70	currenshy	step4	currency	Continuua/currency_currenshy/stimulus004.wav	one	5	993	5	4
202	71	shatellite	step1	satellite	Continuua/satellite_shatellite/stimulus001.wav	one	5	906	5	1
202	72	dansher	step3	dancer	Continuua/dancer_dansher/stimulus003.wav	one	5	809	5	3
202	73	tashel	step9	tassel	Continuua/tassel_tashel/stimulus009.wav	one	1	2037	5	9
202	74	shement	step11	cement	Continuua/cement_shement/stimulus011.wav	one	5	1206	5	11
202	75	mishile	step8	missile	Continuua/missile_mishile/stimulus008.wav	one	5	721	5	8
202	76	medishine	step11	medicine	Continuua/medicine_medishine/stimulus011.wav	one	5	1220	5	11
202	77	whishtle	step2	whistle	Continuua/whistle_whishle/stimulus002.wav	one	5	1276	5	2
202	78	dansher	step8	dancer	Continuua/dancer_dansher/stimulus008.wav	one	5	1023	5	8
202	79	foshil	step9	fossil	Continuua/fossil_foshil/stimulus009.wav	one	5	1350	5	9
202	80	shofa	step3	sofa	Continuua/sofa_shofa/stimulus003.wav	one	5	1112	5	3
202	81	galakshy	step10	galaxy	Continuua/galaxy_galakshy/stimulus010.wav	one	5	653	5	10
202	82	monshoon	step11	monsoon	Continuua/monsoon_monshoon/stimulus011.wav	one	5	2235	5	11
202	83	shafari	step1	safari	Continuua/safari_shafari/stimulus001.wav	one	5	798	5	1
202	84	shector	step9	sector	Continuua/sector_shector/stimulus009.wav	one	1	2114	5	9
202	85	shilver	step9	silver	Continuua/silver_shilver/stimulus009.wav	one	5	1031	5	9
202	86	sheremony	step9	ceremony	Continuua/ceremony_sheremony/stimulus009.wav	one	5	2371	5	9
202	87	pharmashy	step6	pharmacy	Continuua/pharmacy_pharmashy/stimulus006.wav	one	5	1349	5	6
202	88	currenshy	step1	currency	Continuua/currency_currenshy/stimulus001.wav	one	5	896	5	1
202	89	dinoshaur	step1	dinosaur	Continuua/dinosaur_dinoshaur/stimulus001.wav	one	5	915	5	1
202	90	mishile	step3	missile	Continuua/missile_mishile/stimulus003.wav	one	5	1429	5	3
202	91	galakshy	step7	galaxy	Continuua/galaxy_galakshy/stimulus007.wav	one	5	1425	5	7
202	92	sheminar	step8	seminar	Continuua/seminar_sheminar/stimulus008.wav	one	5	1163	5	8
202	93	shidewalk	step8	sidewalk	Continuua/sidewalk_shidewalk/stimulus008.wav	one	5	1168	5	8
202	94	galakshy	step3	galaxy	Continuua/galaxy_galakshy/stimulus003.wav	one	5	706	5	3
202	95	cashtle	step5	castle	Continuua/castle_cashle/stimulus005.wav	one	5	675	5	5
202	96	shurfboard	step7	surfboard	Continuua/surfboard_shurfboard/stimulus007.wav	one	5	1146	5	7
202	97	takshi	step7	taxi	Continuua/taxi_takshi/stimulus007.wav	one	5	1593	5	7
202	98	pharmashy	step8	pharmacy	Continuua/pharmacy_pharmashy/stimulus008.wav	one	5	1564	5	8
202	99	curtshy	step9	curtsy	Continuua/curtsy_curtshy/stimulus009.wav	one	1	1265	5	9
202	100	shocket	step9	socket	Continuua/socket_shocket/stimulus009.wav	one	1	1652	5	9
202	101	shafari	step10	safari	Continuua/safari_shafari/stimulus010.wav	one	1	2112	5	10
202	102	caroushel	step3	carousel	Continuua/carousel_caroushel/stimulus003.wav	one	5	961	5	3
202	103	shofa	step4	sofa	Continuua/sofa_shofa/stimulus004.wav	one	5	1356	5	4
202	104	conshert	step5	concert	Continuua/concert_conshert/stimulus005.wav	one	5	1270	5	5
202	105	shofa	step2	sofa	Continuua/sofa_shofa/stimulus002.wav	one	5	795	5	2
202	106	sheiling	step7	ceiling	Continuua/ceiling_sheiling/stimulus007.wav	one	5	1089	5	7
202	107	sheminar	step7	seminar	Continuua/seminar_sheminar/stimulus007.wav	one	5	1093	5	7
202	108	shofa	step7	sofa	Continuua/sofa_shofa/stimulus007.wav	one	5	1117	5	7
202	109	shatellite	step7	satellite	Continuua/satellite_shatellite/stimulus007.wav	one	5	1486	5	7
202	110	shector	step2	sector	Continuua/sector_shector/stimulus002.wav	one	5	828	5	2
202	111	medishine	step7	medicine	Continuua/medicine_medishine/stimulus007.wav	one	5	883	5	7
202	112	dinoshaur	step7	dinosaur	Continuua/dinosaur_dinoshaur/stimulus007.wav	one	5	1409	5	7
202	113	shelery	step10	celery	Continuua/celery_shelery/stimulus010.wav	one	5	1011	5	10
202	114	conshert	step4	concert	Continuua/concert_conshert/stimulus004.wav	one	5	676	5	4
202	115	shettlement	step10	settlement	Continuua/settlement_shettlement/stimulus010.wav	one	1	2251	5	10
202	116	faushet	step6	faucet	Continuua/faucet_faushet/stimulus006.wav	one	5	797	5	6
202	117	shofa	step9	sofa	Continuua/sofa_shofa/stimulus009.wav	one	5	961	5	9
202	118	medishine	step4	medicine	Continuua/medicine_medishine/stimulus004.wav	one	5	1039	5	4
202	119	shurfboard	step1	surfboard	Continuua/surfboard_shurfboard/stimulus001.wav	one	5	1073	5	1
202	120	shettlement	step2	settlement	Continuua/settlement_shettlement/stimulus002.wav	one	5	922	5	2
202	121	shubmarine	step7	submarine	Continuua/submarine_shubmarine/stimulus007.wav	one	5	1002	5	7
202	122	monshoon	step9	monsoon	Continuua/monsoon_monshoon/stimulus009.wav	one	5	1190	5	9
202	123	shettlement	step3	settlement	Continuua/settlement_shettlement/stimulus003.wav	one	5	1446	5	3
202	124	shubmarine	step10	submarine	Continuua/submarine_shubmarine/stimulus010.wav	one	5	1156	5	10
202	125	sheiling	step10	ceiling	Continuua/ceiling_sheiling/stimulus010.wav	one	5	1014	5	10
202	126	caroushel	step8	carousel	Continuua/carousel_caroushel/stimulus008.wav	one	5	982	5	8
202	127	sheremony	step2	ceremony	Continuua/ceremony_sheremony/stimulus002.wav	one	5	1137	5	2
202	128	shailboat	step5	sailboat	Continuua/sailboat_shailboat/stimulus005.wav	one	5	1034	5	5
202	129	monshoon	step1	monsoon	Continuua/monsoon_monshoon/stimulus001.wav	one	5	943	5	1
202	130	shubmarine	step4	submarine	Continuua/submarine_shubmarine/stimulus004.wav	one	5	1619	5	4
202	131	cashtle	step6	castle	Continuua/castle_cashle/stimulus006.wav	one	5	958	5	6
202	132	conshert	step7	concert	Continuua/concert_conshert/stimulus007.wav	one	5	875	5	7
202	133	caroushel	step7	carousel	Continuua/carousel_caroushel/stimulus007.wav	one	5	884	5	7
202	134	shafari	step7	safari	Continuua/safari_shafari/stimulus007.wav	one	5	1061	5	7
202	135	caroushel	step6	carousel	Continuua/carousel_caroushel/stimulus006.wav	one	5	961	5	6
202	136	shidewalk	step9	sidewalk	Continuua/sidewalk_shidewalk/stimulus009.wav	one	5	1138	5	9
202	137	mishile	step5	missile	Continuua/missile_mishile/stimulus005.wav	one	5	964	5	5
202	138	shector	step6	sector	Continuua/sector_shector/stimulus006.wav	one	5	1864	5	6
202	139	galakshy	step1	galaxy	Continuua/galaxy_galakshy/stimulus001.wav	one	5	757	5	1
202	140	shocket	step5	socket	Continuua/socket_shocket/stimulus005.wav	one	5	1387	5	5
202	141	dinoshaur	step11	dinosaur	Continuua/dinosaur_dinoshaur/stimulus011.wav	one	5	1516	5	11
202	142	shyrup	step9	syrup	Continuua/syrup_shyrup/stimulus009.wav	one	1	1958	5	9
202	143	shaddle	step11	saddle	Continuua/saddle_shaddle/stimulus011.wav	one	5	996	5	11
202	144	shunroof	step10	sunroof	Continuua/sunroof_shunroof/stimulus010.wav	one	5	1722	5	10
202	145	shettlement	step9	settlement	Continuua/settlement_shettlement/stimulus009.wav	one	5	1344	5	9
202	146	shailboat	step10	sailboat	Continuua/sailboat_shailboat/stimulus010.wav	one	5	1290	5	10
202	147	shaddle	step7	saddle	Continuua/saddle_shaddle/stimulus007.wav	one	5	4418	5	7
202	148	shurfboard	step10	surfboard	Continuua/surfboard_shurfboard/stimulus010.wav	one	5	1174	5	10
202	149	mishile	step1	missile	Continuua/missile_mishile/stimulus001.wav	one	5	612	5	1
202	150	takshi	step1	taxi	Continuua/taxi_takshi/stimulus001.wav	one	5	1009	5	1
202	151	shyrup	step11	syrup	Continuua/syrup_shyrup/stimulus011.wav	one	5	2650	5	11
202	152	shofa	step10	sofa	Continuua/sofa_shofa/stimulus010.wav	one	5	1174	5	10
202	153	currenshy	step2	currency	Continuua/currency_currenshy/stimulus002.wav	one	5	1052	5	2
202	154	croishant	step7	croissant	Continuua/croissant_croishant/stimulus007.wav	one	5	1145	5	7
202	155	shidewalk	step5	sidewalk	Continuua/sidewalk_shidewalk/stimulus005.wav	one	5	2085	5	5
202	156	sheminar	step11	seminar	Continuua/seminar_sheminar/stimulus011.wav	one	5	1788	5	11
202	157	penshil	step10	pencil	Continuua/pencil_penshil/stimulus010.wav	one	1	1578	5	10
202	158	takshi	step5	taxi	Continuua/taxi_takshi/stimulus005.wav	one	5	840	5	5
202	159	sheiling	step9	ceiling	Continuua/ceiling_sheiling/stimulus009.wav	one	5	2405	5	9
202	160	faushet	step10	faucet	Continuua/faucet_faushet/stimulus010.wav	one	5	2254	5	10
202	161	caroushel	step1	carousel	Continuua/carousel_caroushel/stimulus001.wav	one	5	1221	5	1
202	162	shaddle	step9	saddle	Continuua/saddle_shaddle/stimulus009.wav	one	5	1321	5	9
202	163	pharmashy	step4	pharmacy	Continuua/pharmacy_pharmashy/stimulus004.wav	one	5	939	5	4
202	164	dinoshaur	step9	dinosaur	Continuua/dinosaur_dinoshaur/stimulus009.wav	one	5	1232	5	9
202	165	shunroof	step2	sunroof	Continuua/sunroof_shunroof/stimulus002.wav	one	5	816	5	2
202	166	curshor	step8	cursor	Continuua/cursor_curshor/stimulus008.wav	one	5	1485	5	8
202	167	shafari	step11	safari	Continuua/safari_shafari/stimulus011.wav	one	5	1830	5	11
202	168	takshi	step6	taxi	Continuua/taxi_takshi/stimulus006.wav	one	5	1991	5	6
202	169	curshor	step7	cursor	Continuua/cursor_curshor/stimulus007.wav	one	5	1188	5	7
202	170	croishant	step5	croissant	Continuua/croissant_croishant/stimulus005.wav	one	5	1479	5	5
202	171	whishtle	step3	whistle	Continuua/whistle_whishle/stimulus003.wav	one	5	1815	5	3
202	172	shafari	step6	safari	Continuua/safari_shafari/stimulus006.wav	one	5	1175	5	6
202	173	conshert	step1	concert	Continuua/concert_conshert/stimulus001.wav	one	5	894	5	1
202	174	dansher	step9	dancer	Continuua/dancer_dansher/stimulus009.wav	one	5	941	5	9
202	175	curshor	step11	cursor	Continuua/cursor_curshor/stimulus011.wav	one	5	866	5	11
202	176	shatellite	step8	satellite	Continuua/satellite_shatellite/stimulus008.wav	one	5	1006	5	8
202	177	currenshy	step5	currency	Continuua/currency_currenshy/stimulus005.wav	one	5	857	5	5
202	178	galakshy	step6	galaxy	Continuua/galaxy_galakshy/stimulus006.wav	one	5	700	5	6
202	179	shocket	step10	socket	Continuua/socket_shocket/stimulus010.wav	one	1	2135	5	10
202	180	shettlement	step1	settlement	Continuua/settlement_shettlement/stimulus001.wav	one	5	859	5	1
202	181	shector	step10	sector	Continuua/sector_shector/stimulus010.wav	one	5	2687	5	10
202	182	sheminar	step6	seminar	Continuua/seminar_sheminar/stimulus006.wav	one	5	1160	5	6
202	183	curtshy	step3	curtsy	Continuua/curtsy_curtshy/stimulus003.wav	one	5	1145	5	3
202	184	foshil	step8	fossil	Continuua/fossil_foshil/stimulus008.wav	one	5	1619	5	8
202	185	shunroof	step11	sunroof	Continuua/sunroof_shunroof/stimulus011.wav	one	5	1218	5	11
202	186	sheremony	step4	ceremony	Continuua/ceremony_sheremony/stimulus004.wav	one	5	922	5	4
202	187	shafari	step2	safari	Continuua/safari_shafari/stimulus002.wav	one	5	1785	5	2
202	188	shaddle	step3	saddle	Continuua/saddle_shaddle/stimulus003.wav	one	5	920	5	3
202	189	caroushel	step9	carousel	Continuua/carousel_caroushel/stimulus009.wav	one	5	1155	5	9
202	190	foshil	step4	fossil	Continuua/fossil_foshil/stimulus004.wav	one	5	1057	5	4
202	191	pharmashy	step3	pharmacy	Continuua/pharmacy_pharmashy/stimulus003.wav	one	5	1495	5	3
202	192	shubmarine	step2	submarine	Continuua/submarine_shubmarine/stimulus002.wav	one	5	1001	5	2
202	193	shement	step3	cement	Continuua/cement_shement/stimulus003.wav	one	5	1042	5	3
202	194	shubmarine	step3	submarine	Continuua/submarine_shubmarine/stimulus003.wav	one	5	1155	5	3
202	195	takshi	step4	taxi	Continuua/taxi_takshi/stimulus004.wav	one	5	1052	5	4
202	196	monshoon	step2	monsoon	Continuua/monsoon_monshoon/stimulus002.wav	one	5	1330	5	2
202	197	shement	step10	cement	Continuua/cement_shement/stimulus010.wav	one	5	1161	5	10
202	198	whishtle	step4	whistle	Continuua/whistle_whishle/stimulus004.wav	one	5	738	5	4
202	199	curtshy	step6	curtsy	Continuua/curtsy_curtshy/stimulus006.wav	one	5	1312	5	6
202	200	curtshy	step4	curtsy	Continuua/curtsy_curtshy/stimulus004.wav	one	5	1613	5	4
202	201	medishine	step5	medicine	Continuua/medicine_medishine/stimulus005.wav	one	5	978	5	5
202	202	croishant	step9	croissant	Continuua/croissant_croishant/stimulus009.wav	one	5	1382	5	9
202	203	conshert	step3	concert	Continuua/concert_conshert/stimulus003.wav	one	5	764	5	3
202	204	tashel	step5	tassel	Continuua/tassel_tashel/stimulus005.wav	one	5	1265	5	5
202	205	mishile	step9	missile	Continuua/missile_mishile/stimulus009.wav	one	0	0	5	9
202	206	shelery	step11	celery	Continuua/celery_shelery/stimulus011.wav	one	5	2481	5	11
202	207	curtshy	step5	curtsy	Continuua/curtsy_curtshy/stimulus005.wav	one	5	881	5	5
202	208	shement	step8	cement	Continuua/cement_shement/stimulus008.wav	one	5	1349	5	8
202	209	medishine	step3	medicine	Continuua/medicine_medishine/stimulus003.wav	one	5	974	5	3
202	210	medishine	step10	medicine	Continuua/medicine_medishine/stimulus010.wav	one	5	1576	5	10
202	211	penshil	step7	pencil	Continuua/pencil_penshil/stimulus007.wav	one	5	1186	5	7
202	212	shurfboard	step11	surfboard	Continuua/surfboard_shurfboard/stimulus011.wav	one	5	1902	5	11
202	213	shaddle	step4	saddle	Continuua/saddle_shaddle/stimulus004.wav	one	5	1003	5	4
202	214	faushet	step2	faucet	Continuua/faucet_faushet/stimulus002.wav	one	5	1066	5	2
202	215	cashtle	step9	castle	Continuua/castle_cashle/stimulus009.wav	one	1	2823	5	9
202	216	shofa	step6	sofa	Continuua/sofa_shofa/stimulus006.wav	one	5	1354	5	6
202	217	shilver	step6	silver	Continuua/silver_shilver/stimulus006.wav	one	5	1163	5	6
202	218	shunroof	step1	sunroof	Continuua/sunroof_shunroof/stimulus001.wav	one	5	1103	5	1
202	219	shocket	step3	socket	Continuua/socket_shocket/stimulus003.wav	one	5	1418	5	3
202	220	sheremony	step7	ceremony	Continuua/ceremony_sheremony/stimulus007.wav	one	5	1666	5	7
202	221	shafari	step8	safari	Continuua/safari_shafari/stimulus008.wav	one	5	3658	5	8
202	222	tashel	step7	tassel	Continuua/tassel_tashel/stimulus007.wav	one	5	1005	5	7
202	223	cashtle	step3	castle	Continuua/castle_cashle/stimulus003.wav	one	5	2531	5	3
202	224	shettlement	step8	settlement	Continuua/settlement_shettlement/stimulus008.wav	one	1	1341	5	8
202	225	shailboat	step2	sailboat	Continuua/sailboat_shailboat/stimulus002.wav	one	5	916	5	2
202	226	shocket	step1	socket	Continuua/socket_shocket/stimulus001.wav	one	5	1214	5	1
202	227	tashel	step6	tassel	Continuua/tassel_tashel/stimulus006.wav	one	5	1120	5	6
202	228	penshil	step1	pencil	Continuua/pencil_penshil/stimulus001.wav	one	5	1461	5	1
202	229	caroushel	step2	carousel	Continuua/carousel_caroushel/stimulus002.wav	one	5	830	5	2
202	230	dinoshaur	step3	dinosaur	Continuua/dinosaur_dinoshaur/stimulus003.wav	one	5	736	5	3
202	231	sheiling	step5	ceiling	Continuua/ceiling_sheiling/stimulus005.wav	one	5	788	5	5
202	232	sheminar	step2	seminar	Continuua/seminar_sheminar/stimulus002.wav	one	5	910	5	2
202	233	whishtle	step11	whistle	Continuua/whistle_whishle/stimulus011.wav	one	5	2022	5	11
202	234	currenshy	step9	currency	Continuua/currency_currenshy/stimulus009.wav	one	5	3261	5	9
202	235	currenshy	step6	currency	Continuua/currency_currenshy/stimulus006.wav	one	5	1650	5	6
202	236	conshert	step10	concert	Continuua/concert_conshert/stimulus010.wav	one	5	1462	5	10
202	237	tashel	step11	tassel	Continuua/tassel_tashel/stimulus011.wav	one	5	1188	5	11
202	238	caroushel	step10	carousel	Continuua/carousel_caroushel/stimulus010.wav	one	5	1908	5	10
202	239	cashtle	step7	castle	Continuua/castle_cashle/stimulus007.wav	one	5	1060	5	7
202	240	croishant	step2	croissant	Continuua/croissant_croishant/stimulus002.wav	one	5	958	5	2
202	241	shubmarine	step9	submarine	Continuua/submarine_shubmarine/stimulus009.wav	one	5	1791	5	9
202	242	shailboat	step7	sailboat	Continuua/sailboat_shailboat/stimulus007.wav	one	5	1386	5	7
202	243	medishine	step8	medicine	Continuua/medicine_medishine/stimulus008.wav	one	5	1280	5	8
202	244	sheminar	step4	seminar	Continuua/seminar_sheminar/stimulus004.wav	one	5	957	5	4
202	245	galakshy	step8	galaxy	Continuua/galaxy_galakshy/stimulus008.wav	one	5	784	5	8
202	246	shidewalk	step10	sidewalk	Continuua/sidewalk_shidewalk/stimulus010.wav	one	5	1021	5	10
202	247	shofa	step5	sofa	Continuua/sofa_shofa/stimulus005.wav	one	5	866	5	5
202	248	shidewalk	step1	sidewalk	Continuua/sidewalk_shidewalk/stimulus001.wav	one	5	1070	5	1
202	249	shatellite	step4	satellite	Continuua/satellite_shatellite/stimulus004.wav	one	5	897	5	4
202	250	mishile	step11	missile	Continuua/missile_mishile/stimulus011.wav	one	5	1260	5	11
202	251	foshil	step5	fossil	Continuua/fossil_foshil/stimulus005.wav	one	5	951	5	5
202	252	curshor	step3	cursor	Continuua/cursor_curshor/stimulus003.wav	one	5	929	5	3
202	253	sheiling	step4	ceiling	Continuua/ceiling_sheiling/stimulus004.wav	one	5	795	5	4
202	254	shement	step9	cement	Continuua/cement_shement/stimulus009.wav	one	5	1160	5	9
202	255	penshil	step4	pencil	Continuua/pencil_penshil/stimulus004.wav	one	5	1866	5	4
202	256	medishine	step6	medicine	Continuua/medicine_medishine/stimulus006.wav	one	5	1091	5	6
202	257	monshoon	step4	monsoon	Continuua/monsoon_monshoon/stimulus004.wav	one	5	927	5	4
202	258	penshil	step9	pencil	Continuua/pencil_penshil/stimulus009.wav	one	5	1336	5	9
202	259	currenshy	step10	currency	Continuua/currency_currenshy/stimulus010.wav	one	5	1436	5	10
202	260	dinoshaur	step10	dinosaur	Continuua/dinosaur_dinoshaur/stimulus010.wav	one	5	1485	5	10
202	261	shettlement	step5	settlement	Continuua/settlement_shettlement/stimulus005.wav	one	5	908	5	5
202	262	shilver	step2	silver	Continuua/silver_shilver/stimulus002.wav	one	5	1155	5	2
202	263	croishant	step3	croissant	Continuua/croissant_croishant/stimulus003.wav	one	5	762	5	3
202	264	shyrup	step6	syrup	Continuua/syrup_shyrup/stimulus006.wav	one	1	1222	5	6
202	265	shector	step3	sector	Continuua/sector_shector/stimulus003.wav	one	5	980	5	3
202	266	caroushel	step5	carousel	Continuua/carousel_caroushel/stimulus005.wav	one	5	737	5	5
202	267	caroushel	step11	carousel	Continuua/carousel_caroushel/stimulus011.wav	one	5	3317	5	11
202	268	dinoshaur	step6	dinosaur	Continuua/dinosaur_dinoshaur/stimulus006.wav	one	5	866	5	6
202	269	sheremony	step8	ceremony	Continuua/ceremony_sheremony/stimulus008.wav	one	5	1009	5	8
202	270	shailboat	step4	sailboat	Continuua/sailboat_shailboat/stimulus004.wav	one	5	999	5	4
202	271	dansher	step1	dancer	Continuua/dancer_dansher/stimulus001.wav	one	5	953	5	1
202	272	foshil	step7	fossil	Continuua/fossil_foshil/stimulus007.wav	one	5	918	5	7
202	273	shubmarine	step1	submarine	Continuua/submarine_shubmarine/stimulus001.wav	one	5	1070	5	1
202	274	shelery	step5	celery	Continuua/celery_shelery/stimulus005.wav	one	5	1043	5	5
202	275	dansher	step10	dancer	Continuua/dancer_dansher/stimulus010.wav	one	5	2534	5	10
202	276	shubmarine	step5	submarine	Continuua/submarine_shubmarine/stimulus005.wav	one	5	927	5	5
202	277	currenshy	step3	currency	Continuua/currency_currenshy/stimulus003.wav	one	5	810	5	3
202	278	curtshy	step7	curtsy	Continuua/curtsy_curtshy/stimulus007.wav	one	5	861	5	7
202	279	whishtle	step6	whistle	Continuua/whistle_whishle/stimulus006.wav	one	5	869	5	6
202	280	shailboat	step9	sailboat	Continuua/sailboat_shailboat/stimulus009.wav	one	5	1528	5	9
202	281	sheremony	step5	ceremony	Continuua/ceremony_sheremony/stimulus005.wav	one	5	921	5	5
202	282	mishile	step6	missile	Continuua/missile_mishile/stimulus006.wav	one	5	1299	5	6
202	283	shofa	step1	sofa	Continuua/sofa_shofa/stimulus001.wav	one	5	1036	5	1
202	284	shunroof	step6	sunroof	Continuua/sunroof_shunroof/stimulus006.wav	one	5	1399	5	6
202	285	sheminar	step1	seminar	Continuua/seminar_sheminar/stimulus001.wav	one	5	945	5	1
202	286	currenshy	step11	currency	Continuua/currency_currenshy/stimulus011.wav	one	5	1249	5	11
202	287	tashel	step4	tassel	Continuua/tassel_tashel/stimulus004.wav	one	5	1382	5	4
202	288	shaddle	step2	saddle	Continuua/saddle_shaddle/stimulus002.wav	one	5	1742	5	2
202	289	croishant	step8	croissant	Continuua/croissant_croishant/stimulus008.wav	one	0	0	5	8
202	290	shidewalk	step3	sidewalk	Continuua/sidewalk_shidewalk/stimulus003.wav	one	5	857	5	3
202	291	croishant	step1	croissant	Continuua/croissant_croishant/stimulus001.wav	one	5	982	5	1
202	292	dansher	step11	dancer	Continuua/dancer_dansher/stimulus011.wav	one	1	1732	5	11
202	293	shettlement	step7	settlement	Continuua/settlement_shettlement/stimulus007.wav	one	5	1322	5	7
202	294	whishtle	step9	whistle	Continuua/whistle_whishle/stimulus009.wav	one	5	1020	5	9
202	295	dansher	step4	dancer	Continuua/dancer_dansher/stimulus004.wav	one	5	835	5	4
202	296	galakshy	step11	galaxy	Continuua/galaxy_galakshy/stimulus011.wav	one	5	927	5	11
202	297	shafari	step5	safari	Continuua/safari_shafari/stimulus005.wav	one	5	1021	5	5
202	298	shyrup	step4	syrup	Continuua/syrup_shyrup/stimulus004.wav	one	5	976	5	4
202	299	takshi	step9	taxi	Continuua/taxi_takshi/stimulus009.wav	one	5	920	5	9
202	300	medishine	step9	medicine	Continuua/medicine_medishine/stimulus009.wav	one	5	975	5	9
202	301	shement	step6	cement	Continuua/cement_shement/stimulus006.wav	one	5	857	5	6
202	302	shailboat	step11	sailboat	Continuua/sailboat_shailboat/stimulus011.wav	one	1	1718	5	11
202	303	conshert	step6	concert	Continuua/concert_conshert/stimulus006.wav	one	5	760	5	6
202	304	monshoon	step6	monsoon	Continuua/monsoon_monshoon/stimulus006.wav	one	5	828	5	6
202	305	takshi	step2	taxi	Continuua/taxi_takshi/stimulus002.wav	one	5	680	5	2
202	306	shatellite	step5	satellite	Continuua/satellite_shatellite/stimulus005.wav	one	5	858	5	5
202	307	whishtle	step5	whistle	Continuua/whistle_whishle/stimulus005.wav	one	5	1317	5	5
202	308	shunroof	step5	sunroof	Continuua/sunroof_shunroof/stimulus005.wav	one	5	936	5	5
202	309	monshoon	step5	monsoon	Continuua/monsoon_monshoon/stimulus005.wav	one	5	812	5	5
202	310	shofa	step8	sofa	Continuua/sofa_shofa/stimulus008.wav	one	5	1091	5	8
202	311	dansher	step6	dancer	Continuua/dancer_dansher/stimulus006.wav	one	5	652	5	6
202	312	shector	step5	sector	Continuua/sector_shector/stimulus005.wav	one	5	952	5	5
202	313	shement	step1	cement	Continuua/cement_shement/stimulus001.wav	one	5	754	5	1
202	314	currenshy	step7	currency	Continuua/currency_currenshy/stimulus007.wav	one	5	944	5	7
202	315	curtshy	step11	curtsy	Continuua/curtsy_curtshy/stimulus011.wav	one	1	1650	5	11
202	316	croishant	step10	croissant	Continuua/croissant_croishant/stimulus010.wav	one	1	1773	5	10
202	317	shafari	step4	safari	Continuua/safari_shafari/stimulus004.wav	one	5	869	5	4
202	318	conshert	step2	concert	Continuua/concert_conshert/stimulus002.wav	one	5	671	5	2
202	319	monshoon	step8	monsoon	Continuua/monsoon_monshoon/stimulus008.wav	one	5	922	5	8
202	320	sheiling	step11	ceiling	Continuua/ceiling_sheiling/stimulus011.wav	one	1	1139	5	11
202	321	cashtle	step10	castle	Continuua/castle_cashle/stimulus010.wav	one	0	0	5	10
202	322	pharmashy	step5	pharmacy	Continuua/pharmacy_pharmashy/stimulus005.wav	one	5	1294	5	5
202	323	faushet	step7	faucet	Continuua/faucet_faushet/stimulus007.wav	one	5	1014	5	7
202	324	shafari	step9	safari	Continuua/safari_shafari/stimulus009.wav	one	5	2581	5	9
202	325	shidewalk	step11	sidewalk	Continuua/sidewalk_shidewalk/stimulus011.wav	one	5	1894	5	11
202	326	faushet	step9	faucet	Continuua/faucet_faushet/stimulus009.wav	one	5	1119	5	9
202	327	shilver	step7	silver	Continuua/silver_shilver/stimulus007.wav	one	5	1303	5	7
202	328	shunroof	step3	sunroof	Continuua/sunroof_shunroof/stimulus003.wav	one	5	914	5	3
202	329	shidewalk	step6	sidewalk	Continuua/sidewalk_shidewalk/stimulus006.wav	one	5	1189	5	6
202	330	shement	step7	cement	Continuua/cement_shement/stimulus007.wav	one	5	2091	5	7
202	331	curshor	step1	cursor	Continuua/cursor_curshor/stimulus001.wav	one	5	916	5	1
202	332	shaddle	step10	saddle	Continuua/saddle_shaddle/stimulus010.wav	one	5	847	5	10
202	333	shatellite	step9	satellite	Continuua/satellite_shatellite/stimulus009.wav	one	1	2401	5	9
202	334	pharmashy	step10	pharmacy	Continuua/pharmacy_pharmashy/stimulus010.wav	one	5	1658	5	10
202	335	sheminar	step3	seminar	Continuua/seminar_sheminar/stimulus003.wav	one	5	960	5	3
202	336	foshil	step6	fossil	Continuua/fossil_foshil/stimulus006.wav	one	5	762	5	6
202	337	sheminar	step5	seminar	Continuua/seminar_sheminar/stimulus005.wav	one	5	846	5	5
202	338	shatellite	step6	satellite	Continuua/satellite_shatellite/stimulus006.wav	one	5	902	5	6
202	339	curtshy	step2	curtsy	Continuua/curtsy_curtshy/stimulus002.wav	one	5	700	5	2
202	340	penshil	step6	pencil	Continuua/pencil_penshil/stimulus006.wav	one	5	884	5	6
202	341	shidewalk	step4	sidewalk	Continuua/sidewalk_shidewalk/stimulus004.wav	one	5	857	5	4
202	342	dinoshaur	step2	dinosaur	Continuua/dinosaur_dinoshaur/stimulus002.wav	one	5	819	5	2
202	343	shubmarine	step6	submarine	Continuua/submarine_shubmarine/stimulus006.wav	one	5	1897	5	6
202	344	faushet	step1	faucet	Continuua/faucet_faushet/stimulus001.wav	one	5	1315	5	1
202	345	conshert	step9	concert	Continuua/concert_conshert/stimulus009.wav	one	5	924	5	9
202	346	shaddle	step5	saddle	Continuua/saddle_shaddle/stimulus005.wav	one	5	1095	5	5
202	347	shyrup	step2	syrup	Continuua/syrup_shyrup/stimulus002.wav	one	5	1944	5	2
202	348	shaddle	step1	saddle	Continuua/saddle_shaddle/stimulus001.wav	one	5	866	5	1
202	349	mishile	step2	missile	Continuua/missile_mishile/stimulus002.wav	one	5	874	5	2
202	350	shocket	step7	socket	Continuua/socket_shocket/stimulus007.wav	one	5	1705	5	7
202	351	shettlement	step11	settlement	Continuua/settlement_shettlement/stimulus011.wav	one	1	1300	5	11
202	352	shector	step1	sector	Continuua/sector_shector/stimulus001.wav	one	5	822	5	1
202	353	shyrup	step10	syrup	Continuua/syrup_shyrup/stimulus010.wav	one	1	1070	5	10
202	354	faushet	step11	faucet	Continuua/faucet_faushet/stimulus011.wav	one	1	1361	5	11
202	355	shatellite	step2	satellite	Continuua/satellite_shatellite/stimulus002.wav	one	5	894	5	2
202	356	penshil	step2	pencil	Continuua/pencil_penshil/stimulus002.wav	one	5	713	5	2
202	357	foshil	step3	fossil	Continuua/fossil_foshil/stimulus003.wav	one	5	1069	5	3
202	358	whishtle	step1	whistle	Continuua/whistle_whishle/stimulus001.wav	one	5	719	5	1
202	359	medishine	step1	medicine	Continuua/medicine_medishine/stimulus001.wav	one	5	714	5	1
202	360	penshil	step8	pencil	Continuua/pencil_penshil/stimulus008.wav	one	5	1329	5	8
202	361	shurfboard	step8	surfboard	Continuua/surfboard_shurfboard/stimulus008.wav	one	1	2266	5	8
202	362	shyrup	step7	syrup	Continuua/syrup_shyrup/stimulus007.wav	one	1	1096	5	7
202	363	takshi	step11	taxi	Continuua/taxi_takshi/stimulus011.wav	one	5	1056	5	11
202	364	shilver	step4	silver	Continuua/silver_shilver/stimulus004.wav	one	5	843	5	4
202	365	shyrup	step3	syrup	Continuua/syrup_shyrup/stimulus003.wav	one	5	1256	5	3
202	366	shailboat	step6	sailboat	Continuua/sailboat_shailboat/stimulus006.wav	one	5	942	5	6
202	367	shaddle	step6	saddle	Continuua/saddle_shaddle/stimulus006.wav	one	5	825	5	6
202	368	sheiling	step3	ceiling	Continuua/ceiling_sheiling/stimulus003.wav	one	5	1037	5	3
202	369	shilver	step1	silver	Continuua/silver_shilver/stimulus001.wav	one	5	881	5	1
202	370	takshi	step8	taxi	Continuua/taxi_takshi/stimulus008.wav	one	5	780	5	8
202	371	shurfboard	step2	surfboard	Continuua/surfboard_shurfboard/stimulus002.wav	one	5	900	5	2
202	372	shidewalk	step2	sidewalk	Continuua/sidewalk_shidewalk/stimulus002.wav	one	5	1284	5	2
202	373	foshil	step11	fossil	Continuua/fossil_foshil/stimulus011.wav	one	5	1605	5	11
202	374	tashel	step3	tassel	Continuua/tassel_tashel/stimulus003.wav	one	5	1065	5	3
202	375	cashtle	step4	castle	Continuua/castle_cashle/stimulus004.wav	one	5	843	5	4
202	376	shaddle	step8	saddle	Continuua/saddle_shaddle/stimulus008.wav	one	5	1177	5	8
202	377	shilver	step5	silver	Continuua/silver_shilver/stimulus005.wav	one	5	1063	5	5
202	378	faushet	step8	faucet	Continuua/faucet_faushet/stimulus008.wav	one	5	1703	5	8
202	379	shelery	step1	celery	Continuua/celery_shelery/stimulus001.wav	one	5	1166	5	1
202	380	monshoon	step3	monsoon	Continuua/monsoon_monshoon/stimulus003.wav	one	5	939	5	3
202	381	whishtle	step7	whistle	Continuua/whistle_whishle/stimulus007.wav	one	5	753	5	7
202	382	shubmarine	step8	submarine	Continuua/submarine_shubmarine/stimulus008.wav	one	5	1143	5	8
202	383	foshil	step10	fossil	Continuua/fossil_foshil/stimulus010.wav	one	5	1808	5	10
202	384	medishine	step2	medicine	Continuua/medicine_medishine/stimulus002.wav	one	5	792	5	2
202	385	galakshy	step2	galaxy	Continuua/galaxy_galakshy/stimulus002.wav	one	5	1352	5	2
202	386	shement	step2	cement	Continuua/cement_shement/stimulus002.wav	one	5	912	5	2
202	387	shettlement	step6	settlement	Continuua/settlement_shettlement/stimulus006.wav	one	5	1002	5	6
202	388	sheremony	step11	ceremony	Continuua/ceremony_sheremony/stimulus011.wav	one	1	1217	5	11
202	389	shilver	step8	silver	Continuua/silver_shilver/stimulus008.wav	one	1	1103	5	8
202	390	sheiling	step6	ceiling	Continuua/ceiling_sheiling/stimulus006.wav	one	5	974	5	6
202	391	curshor	step10	cursor	Continuua/cursor_curshor/stimulus010.wav	one	5	1501	5	10
202	392	sheremony	step6	ceremony	Continuua/ceremony_sheremony/stimulus006.wav	one	5	947	5	6
202	393	shocket	step11	socket	Continuua/socket_shocket/stimulus011.wav	one	1	1935	5	11
202	394	penshil	step5	pencil	Continuua/pencil_penshil/stimulus005.wav	one	5	863	5	5
202	395	tashel	step1	tassel	Continuua/tassel_tashel/stimulus001.wav	one	5	959	5	1
202	396	tashel	step2	tassel	Continuua/tassel_tashel/stimulus002.wav	one	5	970	5	2
202	397	whishtle	step10	whistle	Continuua/whistle_whishle/stimulus010.wav	one	5	1232	5	10
202	398	takshi	step3	taxi	Continuua/taxi_takshi/stimulus003.wav	one	5	1020	5	3
202	399	shelery	step7	celery	Continuua/celery_shelery/stimulus007.wav	one	5	992	5	7
202	400	dinoshaur	step5	dinosaur	Continuua/dinosaur_dinoshaur/stimulus005.wav	one	5	1067	5	5
202	401	pharmashy	step1	pharmacy	Continuua/pharmacy_pharmashy/stimulus001.wav	one	5	1007	5	1
202	402	sheremony	step3	ceremony	Continuua/ceremony_sheremony/stimulus003.wav	one	5	1172	5	3
202	403	shunroof	step9	sunroof	Continuua/sunroof_shunroof/stimulus009.wav	one	1	1329	5	9
202	404	shatellite	step10	satellite	Continuua/satellite_shatellite/stimulus010.wav	one	1	1564	5	10
202	405	curtshy	step1	curtsy	Continuua/curtsy_curtshy/stimulus001.wav	one	5	928	5	1
202	406	penshil	step11	pencil	Continuua/pencil_penshil/stimulus011.wav	one	1	1310	5	11
202	407	curshor	step6	cursor	Continuua/cursor_curshor/stimulus006.wav	one	5	910	5	6
202	408	sheremony	step1	ceremony	Continuua/ceremony_sheremony/stimulus001.wav	one	5	1072	5	1
202	409	mishile	step7	missile	Continuua/missile_mishile/stimulus007.wav	one	5	749	5	7
202	410	faushet	step4	faucet	Continuua/faucet_faushet/stimulus004.wav	one	5	1336	5	4
202	411	curtshy	step8	curtsy	Continuua/curtsy_curtshy/stimulus008.wav	one	5	1623	5	8
202	412	shofa	step11	sofa	Continuua/sofa_shofa/stimulus011.wav	one	1	1164	5	11
202	413	dansher	step7	dancer	Continuua/dancer_dansher/stimulus007.wav	one	5	1054	5	7
202	414	shector	step7	sector	Continuua/sector_shector/stimulus007.wav	one	5	1284	5	7
202	415	shurfboard	step9	surfboard	Continuua/surfboard_shurfboard/stimulus009.wav	one	1	1999	5	9
202	416	shurfboard	step6	surfboard	Continuua/surfboard_shurfboard/stimulus006.wav	one	5	1187	5	6
202	417	shyrup	step1	syrup	Continuua/syrup_shyrup/stimulus001.wav	one	5	1085	5	1
202	418	shelery	step6	celery	Continuua/celery_shelery/stimulus006.wav	one	5	1062	5	6
202	419	cashtle	step1	castle	Continuua/castle_cashle/stimulus001.wav	one	1	1405	5	1
202	420	shocket	step6	socket	Continuua/socket_shocket/stimulus006.wav	one	5	1887	5	6
202	421	sheminar	step10	seminar	Continuua/seminar_sheminar/stimulus010.wav	one	1	1265	5	10
202	422	shailboat	step1	sailboat	Continuua/sailboat_shailboat/stimulus001.wav	one	5	953	5	1
202	423	conshert	step11	concert	Continuua/concert_conshert/stimulus011.wav	one	5	1669	5	11
202	424	dansher	step2	dancer	Continuua/dancer_dansher/stimulus002.wav	one	5	785	5	2
202	425	shurfboard	step3	surfboard	Continuua/surfboard_shurfboard/stimulus003.wav	one	5	1158	5	3
202	426	croishant	step6	croissant	Continuua/croissant_croishant/stimulus006.wav	one	5	730	5	6
202	427	shunroof	step7	sunroof	Continuua/sunroof_shunroof/stimulus007.wav	one	5	1666	5	7
202	428	pharmashy	step9	pharmacy	Continuua/pharmacy_pharmashy/stimulus009.wav	one	5	1583	5	9
202	429	curshor	step9	cursor	Continuua/cursor_curshor/stimulus009.wav	one	5	765	5	9
202	1	ashi	step4	asi	Continuua/asi_ashi/stimulus004.wav	both	1	2412	1	4
202	2	shin	step6	sin	Continuua/sin_shin/stimulus006.wav	both	1	1672	1	6
202	3	shack	step3	sack	Continuua/sack_shack/stimulus003.wav	both	1	1394	1	3
202	4	shack	step1	sack	Continuua/sack_shack/stimulus001.wav	both	1	993	1	1
202	5	ashi	step2	asi	Continuua/asi_ashi/stimulus002.wav	both	1	923	1	2
202	6	shock	step1	sock	Continuua/sock_shock/stimulus001.wav	both	1	1101	1	1
202	7	shy	step8	sigh	Continuua/sigh_shy/stimulus008.wav	both	5	1940	1	8
202	8	shock	step4	sock	Continuua/sock_shock/stimulus004.wav	both	1	967	1	4
202	9	shock	step2	sock	Continuua/sock_shock/stimulus002.wav	both	1	709	1	2
202	10	shack	step8	sack	Continuua/sack_shack/stimulus008.wav	both	5	769	1	8
202	11	shin	step10	sin	Continuua/sin_shin/stimulus010.wav	both	5	830	1	10
202	12	shin	step9	sin	Continuua/sin_shin/stimulus009.wav	both	5	1020	1	9
202	13	ashi	step6	asi	Continuua/asi_ashi/stimulus006.wav	both	1	1067	1	6
202	14	shin	step4	sin	Continuua/sin_shin/stimulus004.wav	both	1	1227	1	4
202	15	shack	step6	sack	Continuua/sack_shack/stimulus006.wav	both	5	2419	1	6
202	16	shin	step3	sin	Continuua/sin_shin/stimulus003.wav	both	1	1081	1	3
202	17	shock	step3	sock	Continuua/sock_shock/stimulus003.wav	both	1	776	1	3
202	18	shy	step11	sigh	Continuua/sigh_shy/stimulus011.wav	both	5	898	1	11
202	19	shy	step7	sigh	Continuua/sigh_shy/stimulus007.wav	both	5	914	1	7
202	20	ashi	step5	asi	Continuua/asi_ashi/stimulus005.wav	both	1	906	1	5
202	21	ashi	step11	asi	Continuua/asi_ashi/stimulus011.wav	both	5	1346	1	11
202	22	shy	step3	sigh	Continuua/sigh_shy/stimulus003.wav	both	1	1154	1	3
202	23	shock	step5	sock	Continuua/sock_shock/stimulus005.wav	both	1	772	1	5
202	24	shack	step2	sack	Continuua/sack_shack/stimulus002.wav	both	1	1103	1	2
202	25	ashi	step1	asi	Continuua/asi_ashi/stimulus001.wav	both	1	932	1	1
202	26	shock	step11	sock	Continuua/sock_shock/stimulus011.wav	both	5	1168	1	11
202	27	shack	step11	sack	Continuua/sack_shack/stimulus011.wav	both	5	954	1	11
202	28	shy	step4	sigh	Continuua/sigh_shy/stimulus004.wav	both	1	1036	1	4
202	29	shin	step1	sin	Continuua/sin_shin/stimulus001.wav	both	1	1047	1	1
202	30	shy	step5	sigh	Continuua/sigh_shy/stimulus005.wav	both	1	1055	1	5
202	31	shin	step11	sin	Continuua/sin_shin/stimulus011.wav	both	5	905	1	11
202	32	shack	step5	sack	Continuua/sack_shack/stimulus005.wav	both	1	882	1	5
202	33	shock	step6	sock	Continuua/sock_shock/stimulus006.wav	both	1	851	1	6
202	34	shin	step7	sin	Continuua/sin_shin/stimulus007.wav	both	5	1165	1	7
202	35	shack	step10	sack	Continuua/sack_shack/stimulus010.wav	both	5	1096	1	10
202	36	shy	step9	sigh	Continuua/sigh_shy/stimulus009.wav	both	5	787	1	9
202	37	ashi	step3	asi	Continuua/asi_ashi/stimulus003.wav	both	1	919	1	3
202	38	shock	step8	sock	Continuua/sock_shock/stimulus008.wav	both	5	752	1	8
202	39	shin	step5	sin	Continuua/sin_shin/stimulus005.wav	both	1	685	1	5
202	40	shin	step2	sin	Continuua/sin_shin/stimulus002.wav	both	1	961	1	2
202	41	shin	step8	sin	Continuua/sin_shin/stimulus008.wav	both	5	1483	1	8
202	42	shack	step7	sack	Continuua/sack_shack/stimulus007.wav	both	5	1664	1	7
202	43	ashi	step10	asi	Continuua/asi_ashi/stimulus010.wav	both	5	1501	1	10
202	44	shy	step10	sigh	Continuua/sigh_shy/stimulus010.wav	both	5	972	1	10
202	45	ashi	step9	asi	Continuua/asi_ashi/stimulus009.wav	both	5	842	1	9
202	46	shy	step6	sigh	Continuua/sigh_shy/stimulus006.wav	both	5	2450	1	6
202	47	shy	step1	sigh	Continuua/sigh_shy/stimulus001.wav	both	1	908	1	1
202	48	shock	step7	sock	Continuua/sock_shock/stimulus007.wav	both	5	805	1	7
202	49	ashi	step8	asi	Continuua/asi_ashi/stimulus008.wav	both	5	1005	1	8
202	50	ashi	step7	asi	Continuua/asi_ashi/stimulus007.wav	both	1	973	1	7
202	51	shack	step4	sack	Continuua/sack_shack/stimulus004.wav	both	1	857	1	4
202	52	shack	step9	sack	Continuua/sack_shack/stimulus009.wav	both	5	963	1	9
202	53	shock	step10	sock	Continuua/sock_shock/stimulus010.wav	both	5	639	1	10
202	54	shock	step9	sock	Continuua/sock_shock/stimulus009.wav	both	5	692	1	9
202	55	shy	step2	sigh	Continuua/sigh_shy/stimulus002.wav	both	1	1212	1	2
203	1	shafari	step8	safari	Continuua/safari_shafari/stimulus008.wav	one	1	1898	5	8
203	2	sheiling	step4	ceiling	Continuua/ceiling_sheiling/stimulus004.wav	one	5	1292	5	4
203	3	shailboat	step1	sailboat	Continuua/sailboat_shailboat/stimulus001.wav	one	5	1321	5	1
203	4	sheiling	step6	ceiling	Continuua/ceiling_sheiling/stimulus006.wav	one	1	1173	5	6
203	5	sheremony	step2	ceremony	Continuua/ceremony_sheremony/stimulus002.wav	one	5	1469	5	2
203	6	penshil	step4	pencil	Continuua/pencil_penshil/stimulus004.wav	one	1	1780	5	4
203	7	dansher	step8	dancer	Continuua/dancer_dansher/stimulus008.wav	one	1	1245	5	8
203	8	currenshy	step3	currency	Continuua/currency_currenshy/stimulus003.wav	one	5	1184	5	3
203	9	sheremony	step3	ceremony	Continuua/ceremony_sheremony/stimulus003.wav	one	5	905	5	3
203	10	sheminar	step3	seminar	Continuua/seminar_sheminar/stimulus003.wav	one	5	1650	5	3
203	11	caroushel	step1	carousel	Continuua/carousel_caroushel/stimulus001.wav	one	5	1711	5	1
203	12	whishtle	step11	whistle	Continuua/whistle_whishle/stimulus011.wav	one	1	1145	5	11
203	13	sheminar	step6	seminar	Continuua/seminar_sheminar/stimulus006.wav	one	1	1283	5	6
203	14	cashtle	step3	castle	Continuua/castle_cashle/stimulus003.wav	one	5	1372	5	3
203	15	penshil	step9	pencil	Continuua/pencil_penshil/stimulus009.wav	one	1	1150	5	9
203	16	monshoon	step2	monsoon	Continuua/monsoon_monshoon/stimulus002.wav	one	5	2213	5	2
203	17	sheremony	step7	ceremony	Continuua/ceremony_sheremony/stimulus007.wav	one	5	2114	5	7
203	18	galakshy	step4	galaxy	Continuua/galaxy_galakshy/stimulus004.wav	one	5	1269	5	4
203	19	shofa	step1	sofa	Continuua/sofa_shofa/stimulus001.wav	one	5	2490	5	1
203	20	croishant	step4	croissant	Continuua/croissant_croishant/stimulus004.wav	one	5	1626	5	4
203	21	shector	step9	sector	Continuua/sector_shector/stimulus009.wav	one	1	921	5	9
203	22	currenshy	step11	currency	Continuua/currency_currenshy/stimulus011.wav	one	1	1244	5	11
203	23	shector	step4	sector	Continuua/sector_shector/stimulus004.wav	one	5	1836	5	4
203	24	cashtle	step4	castle	Continuua/castle_cashle/stimulus004.wav	one	5	1139	5	4
203	25	takshi	step7	taxi	Continuua/taxi_takshi/stimulus007.wav	one	5	1673	5	7
203	26	penshil	step3	pencil	Continuua/pencil_penshil/stimulus003.wav	one	5	972	5	3
203	27	shubmarine	step5	submarine	Continuua/submarine_shubmarine/stimulus005.wav	one	5	952	5	5
203	28	shocket	step7	socket	Continuua/socket_shocket/stimulus007.wav	one	1	999	5	7
203	29	shyrup	step4	syrup	Continuua/syrup_shyrup/stimulus004.wav	one	1	1336	5	4
203	30	curtshy	step10	curtsy	Continuua/curtsy_curtshy/stimulus010.wav	one	1	2096	5	10
203	31	takshi	step1	taxi	Continuua/taxi_takshi/stimulus001.wav	one	5	1305	5	1
203	32	shunroof	step7	sunroof	Continuua/sunroof_shunroof/stimulus007.wav	one	1	1459	5	7
203	33	shidewalk	step5	sidewalk	Continuua/sidewalk_shidewalk/stimulus005.wav	one	5	1327	5	5
203	34	shyrup	step2	syrup	Continuua/syrup_shyrup/stimulus002.wav	one	5	1409	5	2
203	35	shocket	step10	socket	Continuua/socket_shocket/stimulus010.wav	one	1	976	5	10
203	36	shelery	step4	celery	Continuua/celery_shelery/stimulus004.wav	one	5	1708	5	4
203	37	shyrup	step3	syrup	Continuua/syrup_shyrup/stimulus003.wav	one	5	1200	5	3
203	38	cashtle	step11	castle	Continuua/castle_cashle/stimulus011.wav	one	1	1032	5	11
203	39	shailboat	step7	sailboat	Continuua/sailboat_shailboat/stimulus007.wav	one	1	1252	5	7
203	40	shilver	step1	silver	Continuua/silver_shilver/stimulus001.wav	one	5	1216	5	1
203	41	shocket	step11	socket	Continuua/socket_shocket/stimulus011.wav	one	1	919	5	11
203	42	dinoshaur	step4	dinosaur	Continuua/dinosaur_dinoshaur/stimulus004.wav	one	5	1159	5	4
203	43	pharmashy	step8	pharmacy	Continuua/pharmacy_pharmashy/stimulus008.wav	one	1	1667	5	8
203	44	sheremony	step9	ceremony	Continuua/ceremony_sheremony/stimulus009.wav	one	1	1204	5	9
203	45	pharmashy	step2	pharmacy	Continuua/pharmacy_pharmashy/stimulus002.wav	one	5	1043	5	2
203	46	shyrup	step8	syrup	Continuua/syrup_shyrup/stimulus008.wav	one	1	1074	5	8
203	47	mishile	step4	missile	Continuua/missile_mishile/stimulus004.wav	one	5	1407	5	4
203	48	takshi	step3	taxi	Continuua/taxi_takshi/stimulus003.wav	one	5	1916	5	3
203	49	whishtle	step10	whistle	Continuua/whistle_whishle/stimulus010.wav	one	1	962	5	10
203	50	shaddle	step11	saddle	Continuua/saddle_shaddle/stimulus011.wav	one	1	1359	5	11
203	51	shelery	step8	celery	Continuua/celery_shelery/stimulus008.wav	one	1	3368	5	8
203	52	shaddle	step2	saddle	Continuua/saddle_shaddle/stimulus002.wav	one	5	1160	5	2
203	53	pharmashy	step9	pharmacy	Continuua/pharmacy_pharmashy/stimulus009.wav	one	1	1805	5	9
203	54	curtshy	step4	curtsy	Continuua/curtsy_curtshy/stimulus004.wav	one	5	1321	5	4
203	55	sheiling	step3	ceiling	Continuua/ceiling_sheiling/stimulus003.wav	one	5	933	5	3
203	56	shyrup	step10	syrup	Continuua/syrup_shyrup/stimulus010.wav	one	1	1045	5	10
203	57	shidewalk	step10	sidewalk	Continuua/sidewalk_shidewalk/stimulus010.wav	one	1	1164	5	10
203	58	sheremony	step4	ceremony	Continuua/ceremony_sheremony/stimulus004.wav	one	5	1206	5	4
203	59	caroushel	step3	carousel	Continuua/carousel_caroushel/stimulus003.wav	one	1	1557	5	3
203	60	shaddle	step5	saddle	Continuua/saddle_shaddle/stimulus005.wav	one	5	990	5	5
203	61	foshil	step1	fossil	Continuua/fossil_foshil/stimulus001.wav	one	5	1928	5	1
203	62	shelery	step3	celery	Continuua/celery_shelery/stimulus003.wav	one	5	1121	5	3
203	63	mishile	step1	missile	Continuua/missile_mishile/stimulus001.wav	one	5	780	5	1
203	64	shilver	step9	silver	Continuua/silver_shilver/stimulus009.wav	one	1	970	5	9
203	65	faushet	step10	faucet	Continuua/faucet_faushet/stimulus010.wav	one	1	1615	5	10
203	66	shelery	step9	celery	Continuua/celery_shelery/stimulus009.wav	one	1	1951	5	9
203	67	sheremony	step11	ceremony	Continuua/ceremony_sheremony/stimulus011.wav	one	1	1048	5	11
203	68	shector	step5	sector	Continuua/sector_shector/stimulus005.wav	one	5	1042	5	5
203	69	shunroof	step6	sunroof	Continuua/sunroof_shunroof/stimulus006.wav	one	5	1554	5	6
203	70	shement	step3	cement	Continuua/cement_shement/stimulus003.wav	one	5	1101	5	3
203	71	shurfboard	step11	surfboard	Continuua/surfboard_shurfboard/stimulus011.wav	one	1	1190	5	11
203	72	shailboat	step8	sailboat	Continuua/sailboat_shailboat/stimulus008.wav	one	5	1284	5	8
203	73	medishine	step2	medicine	Continuua/medicine_medishine/stimulus002.wav	one	5	990	5	2
203	74	penshil	step2	pencil	Continuua/pencil_penshil/stimulus002.wav	one	5	839	5	2
203	75	caroushel	step2	carousel	Continuua/carousel_caroushel/stimulus002.wav	one	5	1150	5	2
203	76	curshor	step8	cursor	Continuua/cursor_curshor/stimulus008.wav	one	1	1069	5	8
203	77	cashtle	step7	castle	Continuua/castle_cashle/stimulus007.wav	one	1	1016	5	7
203	78	monshoon	step1	monsoon	Continuua/monsoon_monshoon/stimulus001.wav	one	5	987	5	1
203	79	medishine	step11	medicine	Continuua/medicine_medishine/stimulus011.wav	one	1	1363	5	11
203	80	shubmarine	step11	submarine	Continuua/submarine_shubmarine/stimulus011.wav	one	1	1100	5	11
203	81	curtshy	step7	curtsy	Continuua/curtsy_curtshy/stimulus007.wav	one	5	1304	5	7
203	82	dinoshaur	step3	dinosaur	Continuua/dinosaur_dinoshaur/stimulus003.wav	one	5	945	5	3
203	83	shector	step10	sector	Continuua/sector_shector/stimulus010.wav	one	1	923	5	10
203	84	monshoon	step6	monsoon	Continuua/monsoon_monshoon/stimulus006.wav	one	5	1776	5	6
203	85	sheiling	step9	ceiling	Continuua/ceiling_sheiling/stimulus009.wav	one	1	2772	5	9
203	86	penshil	step11	pencil	Continuua/pencil_penshil/stimulus011.wav	one	1	1431	5	11
203	87	mishile	step6	missile	Continuua/missile_mishile/stimulus006.wav	one	5	1077	5	6
203	88	croishant	step9	croissant	Continuua/croissant_croishant/stimulus009.wav	one	1	1404	5	9
203	89	monshoon	step11	monsoon	Continuua/monsoon_monshoon/stimulus011.wav	one	1	1729	5	11
203	90	pharmashy	step7	pharmacy	Continuua/pharmacy_pharmashy/stimulus007.wav	one	1	1511	5	7
203	91	croishant	step6	croissant	Continuua/croissant_croishant/stimulus006.wav	one	5	1253	5	6
203	92	shelery	step5	celery	Continuua/celery_shelery/stimulus005.wav	one	0	0	5	5
203	93	medishine	step10	medicine	Continuua/medicine_medishine/stimulus010.wav	one	5	2114	5	10
203	94	currenshy	step1	currency	Continuua/currency_currenshy/stimulus001.wav	one	5	1240	5	1
203	95	tashel	step2	tassel	Continuua/tassel_tashel/stimulus002.wav	one	5	2111	5	2
203	96	curtshy	step6	curtsy	Continuua/curtsy_curtshy/stimulus006.wav	one	5	1644	5	6
203	97	shunroof	step11	sunroof	Continuua/sunroof_shunroof/stimulus011.wav	one	1	1334	5	11
203	98	curshor	step3	cursor	Continuua/cursor_curshor/stimulus003.wav	one	5	1050	5	3
203	99	penshil	step8	pencil	Continuua/pencil_penshil/stimulus008.wav	one	5	1181	5	8
203	100	foshil	step5	fossil	Continuua/fossil_foshil/stimulus005.wav	one	5	924	5	5
203	101	croishant	step7	croissant	Continuua/croissant_croishant/stimulus007.wav	one	5	1273	5	7
203	102	shocket	step6	socket	Continuua/socket_shocket/stimulus006.wav	one	5	1854	5	6
203	103	shubmarine	step2	submarine	Continuua/submarine_shubmarine/stimulus002.wav	one	5	1622	5	2
203	104	shilver	step4	silver	Continuua/silver_shilver/stimulus004.wav	one	5	1169	5	4
203	105	shocket	step5	socket	Continuua/socket_shocket/stimulus005.wav	one	5	2929	5	5
203	106	faushet	step1	faucet	Continuua/faucet_faushet/stimulus001.wav	one	5	1222	5	1
203	107	caroushel	step4	carousel	Continuua/carousel_caroushel/stimulus004.wav	one	1	1203	5	4
203	108	mishile	step5	missile	Continuua/missile_mishile/stimulus005.wav	one	5	754	5	5
203	109	shurfboard	step8	surfboard	Continuua/surfboard_shurfboard/stimulus008.wav	one	1	932	5	8
203	110	tashel	step6	tassel	Continuua/tassel_tashel/stimulus006.wav	one	5	1548	5	6
203	111	shurfboard	step7	surfboard	Continuua/surfboard_shurfboard/stimulus007.wav	one	1	1355	5	7
203	112	foshil	step9	fossil	Continuua/fossil_foshil/stimulus009.wav	one	1	1165	5	9
203	113	conshert	step2	concert	Continuua/concert_conshert/stimulus002.wav	one	5	1358	5	2
203	114	shafari	step1	safari	Continuua/safari_shafari/stimulus001.wav	one	5	909	5	1
203	115	whishtle	step1	whistle	Continuua/whistle_whishle/stimulus001.wav	one	5	876	5	1
203	116	shelery	step7	celery	Continuua/celery_shelery/stimulus007.wav	one	1	1107	5	7
203	117	shelery	step11	celery	Continuua/celery_shelery/stimulus011.wav	one	1	1000	5	11
203	118	sheiling	step8	ceiling	Continuua/ceiling_sheiling/stimulus008.wav	one	1	1060	5	8
203	119	tashel	step10	tassel	Continuua/tassel_tashel/stimulus010.wav	one	1	1024	5	10
203	120	shilver	step10	silver	Continuua/silver_shilver/stimulus010.wav	one	1	953	5	10
203	121	shafari	step4	safari	Continuua/safari_shafari/stimulus004.wav	one	5	1029	5	4
203	122	currenshy	step10	currency	Continuua/currency_currenshy/stimulus010.wav	one	1	1427	5	10
203	123	croishant	step1	croissant	Continuua/croissant_croishant/stimulus001.wav	one	5	1046	5	1
203	124	galakshy	step11	galaxy	Continuua/galaxy_galakshy/stimulus011.wav	one	1	2169	5	11
203	125	galakshy	step10	galaxy	Continuua/galaxy_galakshy/stimulus010.wav	one	1	950	5	10
203	126	takshi	step2	taxi	Continuua/taxi_takshi/stimulus002.wav	one	5	975	5	2
203	127	dinoshaur	step9	dinosaur	Continuua/dinosaur_dinoshaur/stimulus009.wav	one	1	1333	5	9
203	128	dinoshaur	step11	dinosaur	Continuua/dinosaur_dinoshaur/stimulus011.wav	one	1	1950	5	11
203	129	dansher	step2	dancer	Continuua/dancer_dansher/stimulus002.wav	one	5	1016	5	2
203	130	whishtle	step2	whistle	Continuua/whistle_whishle/stimulus002.wav	one	5	841	5	2
203	131	caroushel	step6	carousel	Continuua/carousel_caroushel/stimulus006.wav	one	5	1397	5	6
203	132	shatellite	step11	satellite	Continuua/satellite_shatellite/stimulus011.wav	one	1	959	5	11
203	133	croishant	step5	croissant	Continuua/croissant_croishant/stimulus005.wav	one	5	1024	5	5
203	134	shailboat	step6	sailboat	Continuua/sailboat_shailboat/stimulus006.wav	one	5	923	5	6
203	135	caroushel	step9	carousel	Continuua/carousel_caroushel/stimulus009.wav	one	1	1417	5	9
203	136	shailboat	step4	sailboat	Continuua/sailboat_shailboat/stimulus004.wav	one	5	1005	5	4
203	137	shaddle	step6	saddle	Continuua/saddle_shaddle/stimulus006.wav	one	5	1196	5	6
203	138	shailboat	step10	sailboat	Continuua/sailboat_shailboat/stimulus010.wav	one	5	1308	5	10
203	139	sheremony	step8	ceremony	Continuua/ceremony_sheremony/stimulus008.wav	one	5	1591	5	8
203	140	sheminar	step2	seminar	Continuua/seminar_sheminar/stimulus002.wav	one	5	947	5	2
203	141	monshoon	step5	monsoon	Continuua/monsoon_monshoon/stimulus005.wav	one	5	991	5	5
203	142	takshi	step4	taxi	Continuua/taxi_takshi/stimulus004.wav	one	5	1028	5	4
203	143	curshor	step1	cursor	Continuua/cursor_curshor/stimulus001.wav	one	5	2071	5	1
203	144	mishile	step10	missile	Continuua/missile_mishile/stimulus010.wav	one	1	1516	5	10
203	145	shector	step11	sector	Continuua/sector_shector/stimulus011.wav	one	1	850	5	11
203	146	whishtle	step7	whistle	Continuua/whistle_whishle/stimulus007.wav	one	5	1000	5	7
203	147	shement	step2	cement	Continuua/cement_shement/stimulus002.wav	one	5	862	5	2
203	148	faushet	step4	faucet	Continuua/faucet_faushet/stimulus004.wav	one	5	1270	5	4
203	149	caroushel	step8	carousel	Continuua/carousel_caroushel/stimulus008.wav	one	1	1139	5	8
203	150	shatellite	step7	satellite	Continuua/satellite_shatellite/stimulus007.wav	one	5	1127	5	7
203	151	croishant	step8	croissant	Continuua/croissant_croishant/stimulus008.wav	one	1	1690	5	8
203	152	shunroof	step2	sunroof	Continuua/sunroof_shunroof/stimulus002.wav	one	5	1130	5	2
203	153	shatellite	step10	satellite	Continuua/satellite_shatellite/stimulus010.wav	one	1	1145	5	10
203	154	shatellite	step4	satellite	Continuua/satellite_shatellite/stimulus004.wav	one	5	867	5	4
203	155	shailboat	step11	sailboat	Continuua/sailboat_shailboat/stimulus011.wav	one	1	1023	5	11
203	156	dansher	step1	dancer	Continuua/dancer_dansher/stimulus001.wav	one	5	1278	5	1
203	157	dinoshaur	step6	dinosaur	Continuua/dinosaur_dinoshaur/stimulus006.wav	one	5	1176	5	6
203	158	tashel	step11	tassel	Continuua/tassel_tashel/stimulus011.wav	one	1	1690	5	11
203	159	shilver	step5	silver	Continuua/silver_shilver/stimulus005.wav	one	5	1049	5	5
203	160	shubmarine	step9	submarine	Continuua/submarine_shubmarine/stimulus009.wav	one	1	1419	5	9
203	161	pharmashy	step4	pharmacy	Continuua/pharmacy_pharmashy/stimulus004.wav	one	5	1141	5	4
203	162	whishtle	step4	whistle	Continuua/whistle_whishle/stimulus004.wav	one	5	2647	5	4
203	163	shilver	step2	silver	Continuua/silver_shilver/stimulus002.wav	one	5	999	5	2
203	164	currenshy	step9	currency	Continuua/currency_currenshy/stimulus009.wav	one	1	855	5	9
203	165	shurfboard	step5	surfboard	Continuua/surfboard_shurfboard/stimulus005.wav	one	1	1351	5	5
203	166	shyrup	step7	syrup	Continuua/syrup_shyrup/stimulus007.wav	one	1	1117	5	7
203	167	shofa	step8	sofa	Continuua/sofa_shofa/stimulus008.wav	one	1	1096	5	8
203	168	takshi	step9	taxi	Continuua/taxi_takshi/stimulus009.wav	one	1	897	5	9
203	169	galakshy	step1	galaxy	Continuua/galaxy_galakshy/stimulus001.wav	one	5	1166	5	1
203	170	shement	step9	cement	Continuua/cement_shement/stimulus009.wav	one	1	1494	5	9
203	171	sheremony	step6	ceremony	Continuua/ceremony_sheremony/stimulus006.wav	one	5	990	5	6
203	172	shailboat	step3	sailboat	Continuua/sailboat_shailboat/stimulus003.wav	one	5	921	5	3
203	173	dansher	step5	dancer	Continuua/dancer_dansher/stimulus005.wav	one	5	867	5	5
203	174	conshert	step5	concert	Continuua/concert_conshert/stimulus005.wav	one	5	1497	5	5
203	175	sheremony	step5	ceremony	Continuua/ceremony_sheremony/stimulus005.wav	one	5	873	5	5
203	176	shubmarine	step6	submarine	Continuua/submarine_shubmarine/stimulus006.wav	one	5	1181	5	6
203	177	shubmarine	step1	submarine	Continuua/submarine_shubmarine/stimulus001.wav	one	5	1069	5	1
203	178	shettlement	step7	settlement	Continuua/settlement_shettlement/stimulus007.wav	one	1	1026	5	7
203	179	shaddle	step8	saddle	Continuua/saddle_shaddle/stimulus008.wav	one	1	1031	5	8
203	180	shafari	step5	safari	Continuua/safari_shafari/stimulus005.wav	one	1	2203	5	5
203	181	penshil	step6	pencil	Continuua/pencil_penshil/stimulus006.wav	one	5	1496	5	6
203	182	galakshy	step7	galaxy	Continuua/galaxy_galakshy/stimulus007.wav	one	5	2020	5	7
203	183	galakshy	step8	galaxy	Continuua/galaxy_galakshy/stimulus008.wav	one	1	1141	5	8
203	184	tashel	step9	tassel	Continuua/tassel_tashel/stimulus009.wav	one	1	906	5	9
203	185	takshi	step10	taxi	Continuua/taxi_takshi/stimulus010.wav	one	1	1206	5	10
